estimate,id,img,responseTime,shapeindex,trial,truenum,viewindex,firebaseId,PROLIFIC_PID,SESSION_ID,STUDY_ID,dateStarted,feedback,numWarnings,reachedBonus,totalTime
13,INCY9WRU3,Disk2_INCY9WRU3_view2.png,39879,4,1,13,2,x2yhcgdtPnuepHTdSwbVowjqgb9X2,633753ce3c8019c829e7ee33,6399097eb44e9f93ceafd970,6393bc7851c6f243862e40e3,Tue Dec 13 2022 18:24:11 GMT-0500 (Eastern Standard Time),"No, everything was clear",0,0,518624
50,RPXD8F8A1,Cylinder1_RPXD8F8A1_view5.png,21202,1,2,168,5,x2yhcgdtPnuepHTdSwbVowjqgb9X2,633753ce3c8019c829e7ee33,6399097eb44e9f93ceafd970,6393bc7851c6f243862e40e3,Tue Dec 13 2022 18:24:11 GMT-0500 (Eastern Standard Time),"No, everything was clear",0,0,518624
25,L7HJAI5QH,Disk2_L7HJAI5QH_view2.png,63936,4,3,27,2,x2yhcgdtPnuepHTdSwbVowjqgb9X2,633753ce3c8019c829e7ee33,6399097eb44e9f93ceafd970,6393bc7851c6f243862e40e3,Tue Dec 13 2022 18:24:11 GMT-0500 (Eastern Standard Time),"No, everything was clear",0,0,518624
100,QJ7A2VLZJ,Sphere2_QJ7A2VLZJ_view3.png,9908,6,4,634,3,x2yhcgdtPnuepHTdSwbVowjqgb9X2,633753ce3c8019c829e7ee33,6399097eb44e9f93ceafd970,6393bc7851c6f243862e40e3,Tue Dec 13 2022 18:24:11 GMT-0500 (Eastern Standard Time),"No, everything was clear",0,0,518624
150,80NMDSOCB,Sphere2_80NMDSOCB_view2.png,11041,6,5,862,2,x2yhcgdtPnuepHTdSwbVowjqgb9X2,633753ce3c8019c829e7ee33,6399097eb44e9f93ceafd970,6393bc7851c6f243862e40e3,Tue Dec 13 2022 18:24:11 GMT-0500 (Eastern Standard Time),"No, everything was clear",0,0,518624
3,SRGKT7J6W,Disk2_SRGKT7J6W_view1.png,12346,4,6,6,1,x2yhcgdtPnuepHTdSwbVowjqgb9X2,633753ce3c8019c829e7ee33,6399097eb44e9f93ceafd970,6393bc7851c6f243862e40e3,Tue Dec 13 2022 18:24:11 GMT-0500 (Eastern Standard Time),"No, everything was clear",0,0,518624
50,6YS8K4A4Q,Sphere1_6YS8K4A4Q_view5.png,8459,5,7,619,5,x2yhcgdtPnuepHTdSwbVowjqgb9X2,633753ce3c8019c829e7ee33,6399097eb44e9f93ceafd970,6393bc7851c6f243862e40e3,Tue Dec 13 2022 18:24:11 GMT-0500 (Eastern Standard Time),"No, everything was clear",0,0,518624
20,V1KH4ZGWT,Cylinder2_V1KH4ZGWT_view4.png,21259,2,8,31,4,x2yhcgdtPnuepHTdSwbVowjqgb9X2,633753ce3c8019c829e7ee33,6399097eb44e9f93ceafd970,6393bc7851c6f243862e40e3,Tue Dec 13 2022 18:24:11 GMT-0500 (Eastern Standard Time),"No, everything was clear",0,0,518624
100,KPET24YYP,Sphere2_KPET24YYP_view2.png,10701,6,9,734,2,x2yhcgdtPnuepHTdSwbVowjqgb9X2,633753ce3c8019c829e7ee33,6399097eb44e9f93ceafd970,6393bc7851c6f243862e40e3,Tue Dec 13 2022 18:24:11 GMT-0500 (Eastern Standard Time),"No, everything was clear",0,0,518624
100,ZOSELZLL0,Sphere1_ZOSELZLL0_view2.png,24086,5,10,996,2,x2yhcgdtPnuepHTdSwbVowjqgb9X2,633753ce3c8019c829e7ee33,6399097eb44e9f93ceafd970,6393bc7851c6f243862e40e3,Tue Dec 13 2022 18:24:11 GMT-0500 (Eastern Standard Time),"No, everything was clear",0,0,518624
100,YQ7UHJ3SX,Sphere1_YQ7UHJ3SX_view3.png,9903,5,11,943,3,x2yhcgdtPnuepHTdSwbVowjqgb9X2,633753ce3c8019c829e7ee33,6399097eb44e9f93ceafd970,6393bc7851c6f243862e40e3,Tue Dec 13 2022 18:24:11 GMT-0500 (Eastern Standard Time),"No, everything was clear",0,0,518624
23,MGZBUG5C3,Disk1_MGZBUG5C3_view2.png,23561,3,12,23,2,x2yhcgdtPnuepHTdSwbVowjqgb9X2,633753ce3c8019c829e7ee33,6399097eb44e9f93ceafd970,6393bc7851c6f243862e40e3,Tue Dec 13 2022 18:24:11 GMT-0500 (Eastern Standard Time),"No, everything was clear",0,0,518624
10,B81JI2UKR,Disk1_B81JI2UKR_view4.png,15683,3,13,10,4,x2yhcgdtPnuepHTdSwbVowjqgb9X2,633753ce3c8019c829e7ee33,6399097eb44e9f93ceafd970,6393bc7851c6f243862e40e3,Tue Dec 13 2022 18:24:11 GMT-0500 (Eastern Standard Time),"No, everything was clear",0,0,518624
35,5G8BZBGDD,Disk1_5G8BZBGDD_view2.png,29178,3,14,32,2,x2yhcgdtPnuepHTdSwbVowjqgb9X2,633753ce3c8019c829e7ee33,6399097eb44e9f93ceafd970,6393bc7851c6f243862e40e3,Tue Dec 13 2022 18:24:11 GMT-0500 (Eastern Standard Time),"No, everything was clear",0,0,518624
6,SCRT7R5A3,Disk2_SCRT7R5A3_view1.png,14314,4,15,9,1,x2yhcgdtPnuepHTdSwbVowjqgb9X2,633753ce3c8019c829e7ee33,6399097eb44e9f93ceafd970,6393bc7851c6f243862e40e3,Tue Dec 13 2022 18:24:11 GMT-0500 (Eastern Standard Time),"No, everything was clear",0,0,518624
100,M5NR4RF40,Cylinder1_M5NR4RF40_view3.png,10173,1,16,116,3,x2yhcgdtPnuepHTdSwbVowjqgb9X2,633753ce3c8019c829e7ee33,6399097eb44e9f93ceafd970,6393bc7851c6f243862e40e3,Tue Dec 13 2022 18:24:11 GMT-0500 (Eastern Standard Time),"No, everything was clear",0,0,518624
50,SHCV0RIDU,Cylinder2_SHCV0RIDU_view4.png,12431,2,17,41,4,x2yhcgdtPnuepHTdSwbVowjqgb9X2,633753ce3c8019c829e7ee33,6399097eb44e9f93ceafd970,6393bc7851c6f243862e40e3,Tue Dec 13 2022 18:24:11 GMT-0500 (Eastern Standard Time),"No, everything was clear",0,0,518624
20,YWBCJPVX9,Cylinder2_YWBCJPVX9_view5.png,10031,2,18,38,5,x2yhcgdtPnuepHTdSwbVowjqgb9X2,633753ce3c8019c829e7ee33,6399097eb44e9f93ceafd970,6393bc7851c6f243862e40e3,Tue Dec 13 2022 18:24:11 GMT-0500 (Eastern Standard Time),"No, everything was clear",0,0,518624
100,I0WDT82C3,Cylinder1_I0WDT82C3_view1.png,11261,1,19,116,1,x2yhcgdtPnuepHTdSwbVowjqgb9X2,633753ce3c8019c829e7ee33,6399097eb44e9f93ceafd970,6393bc7851c6f243862e40e3,Tue Dec 13 2022 18:24:11 GMT-0500 (Eastern Standard Time),"No, everything was clear",0,0,518624
200,V3Q1CLJY3,Sphere1_V3Q1CLJY3_view5.png,10401,5,20,841,5,x2yhcgdtPnuepHTdSwbVowjqgb9X2,633753ce3c8019c829e7ee33,6399097eb44e9f93ceafd970,6393bc7851c6f243862e40e3,Tue Dec 13 2022 18:24:11 GMT-0500 (Eastern Standard Time),"No, everything was clear",0,0,518624
50,QNFD860RN,Sphere1_QNFD860RN_view2.png,9934,5,21,654,2,x2yhcgdtPnuepHTdSwbVowjqgb9X2,633753ce3c8019c829e7ee33,6399097eb44e9f93ceafd970,6393bc7851c6f243862e40e3,Tue Dec 13 2022 18:24:11 GMT-0500 (Eastern Standard Time),"No, everything was clear",0,0,518624
100,KGONB1PPB,Sphere2_KGONB1PPB_view2.png,13430,6,22,527,2,x2yhcgdtPnuepHTdSwbVowjqgb9X2,633753ce3c8019c829e7ee33,6399097eb44e9f93ceafd970,6393bc7851c6f243862e40e3,Tue Dec 13 2022 18:24:11 GMT-0500 (Eastern Standard Time),"No, everything was clear",0,0,518624
50,NIB1FRFXN,Sphere2_NIB1FRFXN_view2.png,11197,6,23,388,2,x2yhcgdtPnuepHTdSwbVowjqgb9X2,633753ce3c8019c829e7ee33,6399097eb44e9f93ceafd970,6393bc7851c6f243862e40e3,Tue Dec 13 2022 18:24:11 GMT-0500 (Eastern Standard Time),"No, everything was clear",0,0,518624
75,VL08RVUR5,Sphere2_VL08RVUR5_view5.png,9673,6,24,369,5,x2yhcgdtPnuepHTdSwbVowjqgb9X2,633753ce3c8019c829e7ee33,6399097eb44e9f93ceafd970,6393bc7851c6f243862e40e3,Tue Dec 13 2022 18:24:11 GMT-0500 (Eastern Standard Time),"No, everything was clear",0,0,518624
20,I4VF4FG6X,Cylinder2_I4VF4FG6X_view4.png,8788,2,25,29,4,x2yhcgdtPnuepHTdSwbVowjqgb9X2,633753ce3c8019c829e7ee33,6399097eb44e9f93ceafd970,6393bc7851c6f243862e40e3,Tue Dec 13 2022 18:24:11 GMT-0500 (Eastern Standard Time),"No, everything was clear",0,0,518624
11,VPKDNRNXX,Disk2_VPKDNRNXX_view4.png,18357,4,26,18,4,x2yhcgdtPnuepHTdSwbVowjqgb9X2,633753ce3c8019c829e7ee33,6399097eb44e9f93ceafd970,6393bc7851c6f243862e40e3,Tue Dec 13 2022 18:24:11 GMT-0500 (Eastern Standard Time),"No, everything was clear",0,0,518624
15,2JEAZ69Q3,Disk2_2JEAZ69Q3_view4.png,22028,4,27,26,4,x2yhcgdtPnuepHTdSwbVowjqgb9X2,633753ce3c8019c829e7ee33,6399097eb44e9f93ceafd970,6393bc7851c6f243862e40e3,Tue Dec 13 2022 18:24:11 GMT-0500 (Eastern Standard Time),"No, everything was clear",0,0,518624
16,WNLI89O27,Disk2_WNLI89O27_view2.png,23932,4,28,16,2,x2yhcgdtPnuepHTdSwbVowjqgb9X2,633753ce3c8019c829e7ee33,6399097eb44e9f93ceafd970,6393bc7851c6f243862e40e3,Tue Dec 13 2022 18:24:11 GMT-0500 (Eastern Standard Time),"No, everything was clear",0,0,518624
10,P0DDLX60P,Disk1_P0DDLX60P_view3.png,15939,3,29,12,3,x2yhcgdtPnuepHTdSwbVowjqgb9X2,633753ce3c8019c829e7ee33,6399097eb44e9f93ceafd970,6393bc7851c6f243862e40e3,Tue Dec 13 2022 18:24:11 GMT-0500 (Eastern Standard Time),"No, everything was clear",0,0,518624
9,LJEPH36J5,Cylinder2_LJEPH36J5_view2.png,15365,2,30,9,2,x2yhcgdtPnuepHTdSwbVowjqgb9X2,633753ce3c8019c829e7ee33,6399097eb44e9f93ceafd970,6393bc7851c6f243862e40e3,Tue Dec 13 2022 18:24:11 GMT-0500 (Eastern Standard Time),"No, everything was clear",0,0,518624
67,J19F0VAV8,Sphere1_J19F0VAV8_view5.png,24143,5,1,324,5,x76O94eQ5Wbg4R9Szk7VY8Awymnd2,5c3b70640eaa0100018ea877,639906968789fd3c0adaacf1,6393bc7851c6f243862e40e3,Tue Dec 13 2022 18:11:28 GMT-0500 (Eastern Standard Time),"So, I met the criterion for a bonus, yet I received multiple warning for being too quick in estimating.  BTW, those were for images that had a zillion balls in them--no way to accurately count them.",2,1,459078
18,RUXPXZYBF,Disk2_RUXPXZYBF_view5.png,23821,4,2,21,5,x76O94eQ5Wbg4R9Szk7VY8Awymnd2,5c3b70640eaa0100018ea877,639906968789fd3c0adaacf1,6393bc7851c6f243862e40e3,Tue Dec 13 2022 18:11:28 GMT-0500 (Eastern Standard Time),"So, I met the criterion for a bonus, yet I received multiple warning for being too quick in estimating.  BTW, those were for images that had a zillion balls in them--no way to accurately count them.",2,1,459078
29,IHQ35HXKS,Cylinder2_IHQ35HXKS_view3.png,18687,2,3,48,3,x76O94eQ5Wbg4R9Szk7VY8Awymnd2,5c3b70640eaa0100018ea877,639906968789fd3c0adaacf1,6393bc7851c6f243862e40e3,Tue Dec 13 2022 18:11:28 GMT-0500 (Eastern Standard Time),"So, I met the criterion for a bonus, yet I received multiple warning for being too quick in estimating.  BTW, those were for images that had a zillion balls in them--no way to accurately count them.",2,1,459078
9,4UGDYQ3UM,Disk1_4UGDYQ3UM_view1.png,16871,3,4,15,1,x76O94eQ5Wbg4R9Szk7VY8Awymnd2,5c3b70640eaa0100018ea877,639906968789fd3c0adaacf1,6393bc7851c6f243862e40e3,Tue Dec 13 2022 18:11:28 GMT-0500 (Eastern Standard Time),"So, I met the criterion for a bonus, yet I received multiple warning for being too quick in estimating.  BTW, those were for images that had a zillion balls in them--no way to accurately count them.",2,1,459078
33,RPXQ5E75S,Disk1_RPXQ5E75S_view4.png,24558,3,5,34,4,x76O94eQ5Wbg4R9Szk7VY8Awymnd2,5c3b70640eaa0100018ea877,639906968789fd3c0adaacf1,6393bc7851c6f243862e40e3,Tue Dec 13 2022 18:11:28 GMT-0500 (Eastern Standard Time),"So, I met the criterion for a bonus, yet I received multiple warning for being too quick in estimating.  BTW, those were for images that had a zillion balls in them--no way to accurately count them.",2,1,459078
22,NFFYXGFPZ,Disk1_NFFYXGFPZ_view2.png,23269,3,6,21,2,x76O94eQ5Wbg4R9Szk7VY8Awymnd2,5c3b70640eaa0100018ea877,639906968789fd3c0adaacf1,6393bc7851c6f243862e40e3,Tue Dec 13 2022 18:11:28 GMT-0500 (Eastern Standard Time),"So, I met the criterion for a bonus, yet I received multiple warning for being too quick in estimating.  BTW, those were for images that had a zillion balls in them--no way to accurately count them.",2,1,459078
82,BYJKQ0GU9,Cylinder1_BYJKQ0GU9_view4.png,23776,1,7,151,4,x76O94eQ5Wbg4R9Szk7VY8Awymnd2,5c3b70640eaa0100018ea877,639906968789fd3c0adaacf1,6393bc7851c6f243862e40e3,Tue Dec 13 2022 18:11:28 GMT-0500 (Eastern Standard Time),"So, I met the criterion for a bonus, yet I received multiple warning for being too quick in estimating.  BTW, those were for images that had a zillion balls in them--no way to accurately count them.",2,1,459078
38,V535C6Z59,Cylinder2_V535C6Z59_view3.png,18799,2,8,50,3,x76O94eQ5Wbg4R9Szk7VY8Awymnd2,5c3b70640eaa0100018ea877,639906968789fd3c0adaacf1,6393bc7851c6f243862e40e3,Tue Dec 13 2022 18:11:28 GMT-0500 (Eastern Standard Time),"So, I met the criterion for a bonus, yet I received multiple warning for being too quick in estimating.  BTW, those were for images that had a zillion balls in them--no way to accurately count them.",2,1,459078
12,2GCZP1BYJ,Disk1_2GCZP1BYJ_view3.png,12072,3,9,11,3,x76O94eQ5Wbg4R9Szk7VY8Awymnd2,5c3b70640eaa0100018ea877,639906968789fd3c0adaacf1,6393bc7851c6f243862e40e3,Tue Dec 13 2022 18:11:28 GMT-0500 (Eastern Standard Time),"So, I met the criterion for a bonus, yet I received multiple warning for being too quick in estimating.  BTW, those were for images that had a zillion balls in them--no way to accurately count them.",2,1,459078
22,3SVUN1HJL,Disk1_3SVUN1HJL_view3.png,12846,3,10,37,3,x76O94eQ5Wbg4R9Szk7VY8Awymnd2,5c3b70640eaa0100018ea877,639906968789fd3c0adaacf1,6393bc7851c6f243862e40e3,Tue Dec 13 2022 18:11:28 GMT-0500 (Eastern Standard Time),"So, I met the criterion for a bonus, yet I received multiple warning for being too quick in estimating.  BTW, those were for images that had a zillion balls in them--no way to accurately count them.",2,1,459078
84,XC7T5XT3M,Cylinder1_XC7T5XT3M_view3.png,14894,1,11,136,3,x76O94eQ5Wbg4R9Szk7VY8Awymnd2,5c3b70640eaa0100018ea877,639906968789fd3c0adaacf1,6393bc7851c6f243862e40e3,Tue Dec 13 2022 18:11:28 GMT-0500 (Eastern Standard Time),"So, I met the criterion for a bonus, yet I received multiple warning for being too quick in estimating.  BTW, those were for images that had a zillion balls in them--no way to accurately count them.",2,1,459078
27,KZPZYX6I2,Disk2_KZPZYX6I2_view5.png,20527,4,12,22,5,x76O94eQ5Wbg4R9Szk7VY8Awymnd2,5c3b70640eaa0100018ea877,639906968789fd3c0adaacf1,6393bc7851c6f243862e40e3,Tue Dec 13 2022 18:11:28 GMT-0500 (Eastern Standard Time),"So, I met the criterion for a bonus, yet I received multiple warning for being too quick in estimating.  BTW, those were for images that had a zillion balls in them--no way to accurately count them.",2,1,459078
271,55MKNGUJJ,Sphere1_55MKNGUJJ_view2.png,28023,5,13,314,2,x76O94eQ5Wbg4R9Szk7VY8Awymnd2,5c3b70640eaa0100018ea877,639906968789fd3c0adaacf1,6393bc7851c6f243862e40e3,Tue Dec 13 2022 18:11:28 GMT-0500 (Eastern Standard Time),"So, I met the criterion for a bonus, yet I received multiple warning for being too quick in estimating.  BTW, those were for images that had a zillion balls in them--no way to accurately count them.",2,1,459078
115,VPVRI6MWB,Sphere2_VPVRI6MWB_view1.png,15224,6,14,872,1,x76O94eQ5Wbg4R9Szk7VY8Awymnd2,5c3b70640eaa0100018ea877,639906968789fd3c0adaacf1,6393bc7851c6f243862e40e3,Tue Dec 13 2022 18:11:28 GMT-0500 (Eastern Standard Time),"So, I met the criterion for a bonus, yet I received multiple warning for being too quick in estimating.  BTW, those were for images that had a zillion balls in them--no way to accurately count them.",2,1,459078
64,VA5C6JYKZ,Cylinder1_VA5C6JYKZ_view1.png,19998,1,15,111,1,x76O94eQ5Wbg4R9Szk7VY8Awymnd2,5c3b70640eaa0100018ea877,639906968789fd3c0adaacf1,6393bc7851c6f243862e40e3,Tue Dec 13 2022 18:11:28 GMT-0500 (Eastern Standard Time),"So, I met the criterion for a bonus, yet I received multiple warning for being too quick in estimating.  BTW, those were for images that had a zillion balls in them--no way to accurately count them.",2,1,459078
272,7ILGNRK2D,Sphere2_7ILGNRK2D_view1.png,9462,6,16,249,1,x76O94eQ5Wbg4R9Szk7VY8Awymnd2,5c3b70640eaa0100018ea877,639906968789fd3c0adaacf1,6393bc7851c6f243862e40e3,Tue Dec 13 2022 18:11:28 GMT-0500 (Eastern Standard Time),"So, I met the criterion for a bonus, yet I received multiple warning for being too quick in estimating.  BTW, those were for images that had a zillion balls in them--no way to accurately count them.",2,1,459078
29,2AF1RYG89,Cylinder2_2AF1RYG89_view4.png,12870,2,17,31,4,x76O94eQ5Wbg4R9Szk7VY8Awymnd2,5c3b70640eaa0100018ea877,639906968789fd3c0adaacf1,6393bc7851c6f243862e40e3,Tue Dec 13 2022 18:11:28 GMT-0500 (Eastern Standard Time),"So, I met the criterion for a bonus, yet I received multiple warning for being too quick in estimating.  BTW, those were for images that had a zillion balls in them--no way to accurately count them.",2,1,459078
41,XDSIMROG3,Cylinder2_XDSIMROG3_view1.png,9688,2,18,47,1,x76O94eQ5Wbg4R9Szk7VY8Awymnd2,5c3b70640eaa0100018ea877,639906968789fd3c0adaacf1,6393bc7851c6f243862e40e3,Tue Dec 13 2022 18:11:28 GMT-0500 (Eastern Standard Time),"So, I met the criterion for a bonus, yet I received multiple warning for being too quick in estimating.  BTW, those were for images that had a zillion balls in them--no way to accurately count them.",2,1,459078
38,OHDA3OCBC,Cylinder2_OHDA3OCBC_view4.png,11767,2,19,49,4,x76O94eQ5Wbg4R9Szk7VY8Awymnd2,5c3b70640eaa0100018ea877,639906968789fd3c0adaacf1,6393bc7851c6f243862e40e3,Tue Dec 13 2022 18:11:28 GMT-0500 (Eastern Standard Time),"So, I met the criterion for a bonus, yet I received multiple warning for being too quick in estimating.  BTW, those were for images that had a zillion balls in them--no way to accurately count them.",2,1,459078
79,QQJOJR0XS,Cylinder1_QQJOJR0XS_view4.png,7319,1,20,74,4,x76O94eQ5Wbg4R9Szk7VY8Awymnd2,5c3b70640eaa0100018ea877,639906968789fd3c0adaacf1,6393bc7851c6f243862e40e3,Tue Dec 13 2022 18:11:28 GMT-0500 (Eastern Standard Time),"So, I met the criterion for a bonus, yet I received multiple warning for being too quick in estimating.  BTW, those were for images that had a zillion balls in them--no way to accurately count them.",2,1,459078
614,3N0VYJFQD,Sphere1_3N0VYJFQD_view2.png,22157,5,21,407,2,x76O94eQ5Wbg4R9Szk7VY8Awymnd2,5c3b70640eaa0100018ea877,639906968789fd3c0adaacf1,6393bc7851c6f243862e40e3,Tue Dec 13 2022 18:11:28 GMT-0500 (Eastern Standard Time),"So, I met the criterion for a bonus, yet I received multiple warning for being too quick in estimating.  BTW, those were for images that had a zillion balls in them--no way to accurately count them.",2,1,459078
889,QFJ15C239,Sphere1_QFJ15C239_view1.png,5937,5,22,987,1,x76O94eQ5Wbg4R9Szk7VY8Awymnd2,5c3b70640eaa0100018ea877,639906968789fd3c0adaacf1,6393bc7851c6f243862e40e3,Tue Dec 13 2022 18:11:28 GMT-0500 (Eastern Standard Time),"So, I met the criterion for a bonus, yet I received multiple warning for being too quick in estimating.  BTW, those were for images that had a zillion balls in them--no way to accurately count them.",2,1,459078
9,T7OXVFZKO,Disk1_T7OXVFZKO_view5.png,11574,3,23,10,5,x76O94eQ5Wbg4R9Szk7VY8Awymnd2,5c3b70640eaa0100018ea877,639906968789fd3c0adaacf1,6393bc7851c6f243862e40e3,Tue Dec 13 2022 18:11:28 GMT-0500 (Eastern Standard Time),"So, I met the criterion for a bonus, yet I received multiple warning for being too quick in estimating.  BTW, those were for images that had a zillion balls in them--no way to accurately count them.",2,1,459078
72,26U5PULZX,Cylinder1_26U5PULZX_view2.png,8478,1,24,101,2,x76O94eQ5Wbg4R9Szk7VY8Awymnd2,5c3b70640eaa0100018ea877,639906968789fd3c0adaacf1,6393bc7851c6f243862e40e3,Tue Dec 13 2022 18:11:28 GMT-0500 (Eastern Standard Time),"So, I met the criterion for a bonus, yet I received multiple warning for being too quick in estimating.  BTW, those were for images that had a zillion balls in them--no way to accurately count them.",2,1,459078
212,82DFOODCS,Sphere2_82DFOODCS_view1.png,6128,6,25,295,1,x76O94eQ5Wbg4R9Szk7VY8Awymnd2,5c3b70640eaa0100018ea877,639906968789fd3c0adaacf1,6393bc7851c6f243862e40e3,Tue Dec 13 2022 18:11:28 GMT-0500 (Eastern Standard Time),"So, I met the criterion for a bonus, yet I received multiple warning for being too quick in estimating.  BTW, those were for images that had a zillion balls in them--no way to accurately count them.",2,1,459078
212,3NA1Z3VH8,Disk2_3NA1Z3VH8_view4.png,8391,4,26,20,4,x76O94eQ5Wbg4R9Szk7VY8Awymnd2,5c3b70640eaa0100018ea877,639906968789fd3c0adaacf1,6393bc7851c6f243862e40e3,Tue Dec 13 2022 18:11:28 GMT-0500 (Eastern Standard Time),"So, I met the criterion for a bonus, yet I received multiple warning for being too quick in estimating.  BTW, those were for images that had a zillion balls in them--no way to accurately count them.",2,1,459078
29,GIZUFRSOC,Cylinder1_GIZUFRSOC_view1.png,12927,1,27,57,1,x76O94eQ5Wbg4R9Szk7VY8Awymnd2,5c3b70640eaa0100018ea877,639906968789fd3c0adaacf1,6393bc7851c6f243862e40e3,Tue Dec 13 2022 18:11:28 GMT-0500 (Eastern Standard Time),"So, I met the criterion for a bonus, yet I received multiple warning for being too quick in estimating.  BTW, those were for images that had a zillion balls in them--no way to accurately count them.",2,1,459078
79,TVACAARY6,Cylinder1_TVACAARY6_view1.png,8175,1,28,138,1,x76O94eQ5Wbg4R9Szk7VY8Awymnd2,5c3b70640eaa0100018ea877,639906968789fd3c0adaacf1,6393bc7851c6f243862e40e3,Tue Dec 13 2022 18:11:28 GMT-0500 (Eastern Standard Time),"So, I met the criterion for a bonus, yet I received multiple warning for being too quick in estimating.  BTW, those were for images that had a zillion balls in them--no way to accurately count them.",2,1,459078
812,9IFGKGYWD,Sphere1_9IFGKGYWD_view3.png,11696,5,29,634,3,x76O94eQ5Wbg4R9Szk7VY8Awymnd2,5c3b70640eaa0100018ea877,639906968789fd3c0adaacf1,6393bc7851c6f243862e40e3,Tue Dec 13 2022 18:11:28 GMT-0500 (Eastern Standard Time),"So, I met the criterion for a bonus, yet I received multiple warning for being too quick in estimating.  BTW, those were for images that had a zillion balls in them--no way to accurately count them.",2,1,459078
555,0JRIF5LHV,Sphere2_0JRIF5LHV_view1.png,14951,6,30,554,1,x76O94eQ5Wbg4R9Szk7VY8Awymnd2,5c3b70640eaa0100018ea877,639906968789fd3c0adaacf1,6393bc7851c6f243862e40e3,Tue Dec 13 2022 18:11:28 GMT-0500 (Eastern Standard Time),"So, I met the criterion for a bonus, yet I received multiple warning for being too quick in estimating.  BTW, those were for images that had a zillion balls in them--no way to accurately count them.",2,1,459078
30,YWBCJPVX9,Cylinder2_YWBCJPVX9_view1.png,24390,2,1,38,1,x7SUZQgc1A5ZYIOPWgNqpiXYPE9j1,5cbcfce214b3cb0015f03471,6399069232fefa9601ab3564,6393bc7851c6f243862e40e3,Tue Dec 13 2022 17:11:25 GMT-0600 (Central Standard Time),"",3,0,487130
250,KGONB1PPB,Sphere2_KGONB1PPB_view4.png,8794,6,2,527,4,x7SUZQgc1A5ZYIOPWgNqpiXYPE9j1,5cbcfce214b3cb0015f03471,6399069232fefa9601ab3564,6393bc7851c6f243862e40e3,Tue Dec 13 2022 17:11:25 GMT-0600 (Central Standard Time),"",3,0,487130
16,WNLI89O27,Disk2_WNLI89O27_view5.png,22599,4,3,16,5,x7SUZQgc1A5ZYIOPWgNqpiXYPE9j1,5cbcfce214b3cb0015f03471,6399069232fefa9601ab3564,6393bc7851c6f243862e40e3,Tue Dec 13 2022 17:11:25 GMT-0600 (Central Standard Time),"",3,0,487130
27,L7HJAI5QH,Disk2_L7HJAI5QH_view2.png,24863,4,4,27,2,x7SUZQgc1A5ZYIOPWgNqpiXYPE9j1,5cbcfce214b3cb0015f03471,6399069232fefa9601ab3564,6393bc7851c6f243862e40e3,Tue Dec 13 2022 17:11:25 GMT-0600 (Central Standard Time),"",3,0,487130
3,SRGKT7J6W,Disk2_SRGKT7J6W_view3.png,6624,4,5,6,3,x7SUZQgc1A5ZYIOPWgNqpiXYPE9j1,5cbcfce214b3cb0015f03471,6399069232fefa9601ab3564,6393bc7851c6f243862e40e3,Tue Dec 13 2022 17:11:25 GMT-0600 (Central Standard Time),"",3,0,487130
380,KPET24YYP,Sphere2_KPET24YYP_view5.png,12551,6,6,734,5,x7SUZQgc1A5ZYIOPWgNqpiXYPE9j1,5cbcfce214b3cb0015f03471,6399069232fefa9601ab3564,6393bc7851c6f243862e40e3,Tue Dec 13 2022 17:11:25 GMT-0600 (Central Standard Time),"",3,0,487130
170,YQ7UHJ3SX,Sphere1_YQ7UHJ3SX_view2.png,8151,5,7,943,2,x7SUZQgc1A5ZYIOPWgNqpiXYPE9j1,5cbcfce214b3cb0015f03471,6399069232fefa9601ab3564,6393bc7851c6f243862e40e3,Tue Dec 13 2022 17:11:25 GMT-0600 (Central Standard Time),"",3,0,487130
500,80NMDSOCB,Sphere2_80NMDSOCB_view5.png,6017,6,8,862,5,x7SUZQgc1A5ZYIOPWgNqpiXYPE9j1,5cbcfce214b3cb0015f03471,6399069232fefa9601ab3564,6393bc7851c6f243862e40e3,Tue Dec 13 2022 17:11:25 GMT-0600 (Central Standard Time),"",3,0,487130
100,I0WDT82C3,Cylinder1_I0WDT82C3_view4.png,16110,1,9,116,4,x7SUZQgc1A5ZYIOPWgNqpiXYPE9j1,5cbcfce214b3cb0015f03471,6399069232fefa9601ab3564,6393bc7851c6f243862e40e3,Tue Dec 13 2022 17:11:25 GMT-0600 (Central Standard Time),"",3,0,487130
75,M5NR4RF40,Cylinder1_M5NR4RF40_view1.png,10271,1,10,116,1,x7SUZQgc1A5ZYIOPWgNqpiXYPE9j1,5cbcfce214b3cb0015f03471,6399069232fefa9601ab3564,6393bc7851c6f243862e40e3,Tue Dec 13 2022 17:11:25 GMT-0600 (Central Standard Time),"",3,0,487130
25,V1KH4ZGWT,Cylinder2_V1KH4ZGWT_view5.png,13647,2,11,31,5,x7SUZQgc1A5ZYIOPWgNqpiXYPE9j1,5cbcfce214b3cb0015f03471,6399069232fefa9601ab3564,6393bc7851c6f243862e40e3,Tue Dec 13 2022 17:11:25 GMT-0600 (Central Standard Time),"",3,0,487130
35,SHCV0RIDU,Cylinder2_SHCV0RIDU_view3.png,26871,2,12,41,3,x7SUZQgc1A5ZYIOPWgNqpiXYPE9j1,5cbcfce214b3cb0015f03471,6399069232fefa9601ab3564,6393bc7851c6f243862e40e3,Tue Dec 13 2022 17:11:25 GMT-0600 (Central Standard Time),"",3,0,487130
90,QNFD860RN,Sphere1_QNFD860RN_view3.png,12911,5,13,654,3,x7SUZQgc1A5ZYIOPWgNqpiXYPE9j1,5cbcfce214b3cb0015f03471,6399069232fefa9601ab3564,6393bc7851c6f243862e40e3,Tue Dec 13 2022 17:11:25 GMT-0600 (Central Standard Time),"",3,0,487130
13,INCY9WRU3,Disk2_INCY9WRU3_view4.png,16303,4,14,13,4,x7SUZQgc1A5ZYIOPWgNqpiXYPE9j1,5cbcfce214b3cb0015f03471,6399069232fefa9601ab3564,6393bc7851c6f243862e40e3,Tue Dec 13 2022 17:11:25 GMT-0600 (Central Standard Time),"",3,0,487130
21,2JEAZ69Q3,Disk2_2JEAZ69Q3_view4.png,17679,4,15,26,4,x7SUZQgc1A5ZYIOPWgNqpiXYPE9j1,5cbcfce214b3cb0015f03471,6399069232fefa9601ab3564,6393bc7851c6f243862e40e3,Tue Dec 13 2022 17:11:25 GMT-0600 (Central Standard Time),"",3,0,487130
8,LJEPH36J5,Cylinder2_LJEPH36J5_view3.png,22263,2,16,9,3,x7SUZQgc1A5ZYIOPWgNqpiXYPE9j1,5cbcfce214b3cb0015f03471,6399069232fefa9601ab3564,6393bc7851c6f243862e40e3,Tue Dec 13 2022 17:11:25 GMT-0600 (Central Standard Time),"",3,0,487130
45,NIB1FRFXN,Sphere2_NIB1FRFXN_view2.png,6351,6,17,388,2,x7SUZQgc1A5ZYIOPWgNqpiXYPE9j1,5cbcfce214b3cb0015f03471,6399069232fefa9601ab3564,6393bc7851c6f243862e40e3,Tue Dec 13 2022 17:11:25 GMT-0600 (Central Standard Time),"",3,0,487130
35,5G8BZBGDD,Disk1_5G8BZBGDD_view2.png,73903,3,18,32,2,x7SUZQgc1A5ZYIOPWgNqpiXYPE9j1,5cbcfce214b3cb0015f03471,6399069232fefa9601ab3564,6393bc7851c6f243862e40e3,Tue Dec 13 2022 17:11:25 GMT-0600 (Central Standard Time),"",3,0,487130
7,VPKDNRNXX,Disk2_VPKDNRNXX_view1.png,8495,4,19,18,1,x7SUZQgc1A5ZYIOPWgNqpiXYPE9j1,5cbcfce214b3cb0015f03471,6399069232fefa9601ab3564,6393bc7851c6f243862e40e3,Tue Dec 13 2022 17:11:25 GMT-0600 (Central Standard Time),"",3,0,487130
200,QJ7A2VLZJ,Sphere2_QJ7A2VLZJ_view2.png,8703,6,20,634,2,x7SUZQgc1A5ZYIOPWgNqpiXYPE9j1,5cbcfce214b3cb0015f03471,6399069232fefa9601ab3564,6393bc7851c6f243862e40e3,Tue Dec 13 2022 17:11:25 GMT-0600 (Central Standard Time),"",3,0,487130
100,6YS8K4A4Q,Sphere1_6YS8K4A4Q_view4.png,11439,5,21,619,4,x7SUZQgc1A5ZYIOPWgNqpiXYPE9j1,5cbcfce214b3cb0015f03471,6399069232fefa9601ab3564,6393bc7851c6f243862e40e3,Tue Dec 13 2022 17:11:25 GMT-0600 (Central Standard Time),"",3,0,487130
50,VL08RVUR5,Sphere2_VL08RVUR5_view1.png,7255,6,22,369,1,x7SUZQgc1A5ZYIOPWgNqpiXYPE9j1,5cbcfce214b3cb0015f03471,6399069232fefa9601ab3564,6393bc7851c6f243862e40e3,Tue Dec 13 2022 17:11:25 GMT-0600 (Central Standard Time),"",3,0,487130
15,P0DDLX60P,Disk1_P0DDLX60P_view4.png,15686,3,23,12,4,x7SUZQgc1A5ZYIOPWgNqpiXYPE9j1,5cbcfce214b3cb0015f03471,6399069232fefa9601ab3564,6393bc7851c6f243862e40e3,Tue Dec 13 2022 17:11:25 GMT-0600 (Central Standard Time),"",3,0,487130
20,MGZBUG5C3,Disk1_MGZBUG5C3_view3.png,15599,3,24,23,3,x7SUZQgc1A5ZYIOPWgNqpiXYPE9j1,5cbcfce214b3cb0015f03471,6399069232fefa9601ab3564,6393bc7851c6f243862e40e3,Tue Dec 13 2022 17:11:25 GMT-0600 (Central Standard Time),"",3,0,487130
22,I4VF4FG6X,Cylinder2_I4VF4FG6X_view4.png,25390,2,25,29,4,x7SUZQgc1A5ZYIOPWgNqpiXYPE9j1,5cbcfce214b3cb0015f03471,6399069232fefa9601ab3564,6393bc7851c6f243862e40e3,Tue Dec 13 2022 17:11:25 GMT-0600 (Central Standard Time),"",3,0,487130
100,V3Q1CLJY3,Sphere1_V3Q1CLJY3_view4.png,5848,5,26,841,4,x7SUZQgc1A5ZYIOPWgNqpiXYPE9j1,5cbcfce214b3cb0015f03471,6399069232fefa9601ab3564,6393bc7851c6f243862e40e3,Tue Dec 13 2022 17:11:25 GMT-0600 (Central Standard Time),"",3,0,487130
100,ZOSELZLL0,Sphere1_ZOSELZLL0_view1.png,12311,5,27,996,1,x7SUZQgc1A5ZYIOPWgNqpiXYPE9j1,5cbcfce214b3cb0015f03471,6399069232fefa9601ab3564,6393bc7851c6f243862e40e3,Tue Dec 13 2022 17:11:25 GMT-0600 (Central Standard Time),"",3,0,487130
14,B81JI2UKR,Disk1_B81JI2UKR_view2.png,19471,3,28,10,2,x7SUZQgc1A5ZYIOPWgNqpiXYPE9j1,5cbcfce214b3cb0015f03471,6399069232fefa9601ab3564,6393bc7851c6f243862e40e3,Tue Dec 13 2022 17:11:25 GMT-0600 (Central Standard Time),"",3,0,487130
9,SCRT7R5A3,Disk2_SCRT7R5A3_view2.png,12415,4,29,9,2,x7SUZQgc1A5ZYIOPWgNqpiXYPE9j1,5cbcfce214b3cb0015f03471,6399069232fefa9601ab3564,6393bc7851c6f243862e40e3,Tue Dec 13 2022 17:11:25 GMT-0600 (Central Standard Time),"",3,0,487130
40,RPXD8F8A1,Cylinder1_RPXD8F8A1_view4.png,14183,1,30,168,4,x7SUZQgc1A5ZYIOPWgNqpiXYPE9j1,5cbcfce214b3cb0015f03471,6399069232fefa9601ab3564,6393bc7851c6f243862e40e3,Tue Dec 13 2022 17:11:25 GMT-0600 (Central Standard Time),"",3,0,487130
125,ZOSELZLL0,Sphere1_ZOSELZLL0_view1.png,108637,5,1,996,1,A45e1e2U9aOIXPo0EIcPvW1AYaV2,56ac1289f209e0000cdabbe6,6397811991175b14700e5cd4,6393bc7851c6f243862e40e3,Mon Dec 12 2022 13:29:44 GMT-0600 (Central Standard Time),"",0,NaN,657015
110,RPXD8F8A1,Cylinder1_RPXD8F8A1_view1.png,72601,1,2,168,1,A45e1e2U9aOIXPo0EIcPvW1AYaV2,56ac1289f209e0000cdabbe6,6397811991175b14700e5cd4,6393bc7851c6f243862e40e3,Mon Dec 12 2022 13:29:44 GMT-0600 (Central Standard Time),"",0,NaN,657015
8,2GCZP1BYJ,Disk1_2GCZP1BYJ_view4.png,28499,3,3,11,4,A45e1e2U9aOIXPo0EIcPvW1AYaV2,56ac1289f209e0000cdabbe6,6397811991175b14700e5cd4,6393bc7851c6f243862e40e3,Mon Dec 12 2022 13:29:44 GMT-0600 (Central Standard Time),"",0,NaN,657015
125,6YS8K4A4Q,Sphere1_6YS8K4A4Q_view1.png,24105,5,4,619,1,A45e1e2U9aOIXPo0EIcPvW1AYaV2,56ac1289f209e0000cdabbe6,6397811991175b14700e5cd4,6393bc7851c6f243862e40e3,Mon Dec 12 2022 13:29:44 GMT-0600 (Central Standard Time),"",0,NaN,657015
205,KGONB1PPB,Sphere2_KGONB1PPB_view5.png,49534,6,5,527,5,A45e1e2U9aOIXPo0EIcPvW1AYaV2,56ac1289f209e0000cdabbe6,6397811991175b14700e5cd4,6393bc7851c6f243862e40e3,Mon Dec 12 2022 13:29:44 GMT-0600 (Central Standard Time),"",0,NaN,657015
13,WNLI89O27,Disk2_WNLI89O27_view5.png,13424,4,6,16,5,A45e1e2U9aOIXPo0EIcPvW1AYaV2,56ac1289f209e0000cdabbe6,6397811991175b14700e5cd4,6393bc7851c6f243862e40e3,Mon Dec 12 2022 13:29:44 GMT-0600 (Central Standard Time),"",0,NaN,657015
13,MGZBUG5C3,Disk1_MGZBUG5C3_view3.png,8053,3,7,23,3,A45e1e2U9aOIXPo0EIcPvW1AYaV2,56ac1289f209e0000cdabbe6,6397811991175b14700e5cd4,6393bc7851c6f243862e40e3,Mon Dec 12 2022 13:29:44 GMT-0600 (Central Standard Time),"",0,NaN,657015
75,TVACAARY6,Cylinder1_TVACAARY6_view4.png,12198,1,8,138,4,A45e1e2U9aOIXPo0EIcPvW1AYaV2,56ac1289f209e0000cdabbe6,6397811991175b14700e5cd4,6393bc7851c6f243862e40e3,Mon Dec 12 2022 13:29:44 GMT-0600 (Central Standard Time),"",0,NaN,657015
215,YQ7UHJ3SX,Sphere1_YQ7UHJ3SX_view5.png,15126,5,9,943,5,A45e1e2U9aOIXPo0EIcPvW1AYaV2,56ac1289f209e0000cdabbe6,6397811991175b14700e5cd4,6393bc7851c6f243862e40e3,Mon Dec 12 2022 13:29:44 GMT-0600 (Central Standard Time),"",0,NaN,657015
110,0JRIF5LHV,Sphere2_0JRIF5LHV_view1.png,16971,6,10,554,1,A45e1e2U9aOIXPo0EIcPvW1AYaV2,56ac1289f209e0000cdabbe6,6397811991175b14700e5cd4,6393bc7851c6f243862e40e3,Mon Dec 12 2022 13:29:44 GMT-0600 (Central Standard Time),"",0,NaN,657015
13,KZPZYX6I2,Disk2_KZPZYX6I2_view1.png,15908,4,11,22,1,A45e1e2U9aOIXPo0EIcPvW1AYaV2,56ac1289f209e0000cdabbe6,6397811991175b14700e5cd4,6393bc7851c6f243862e40e3,Mon Dec 12 2022 13:29:44 GMT-0600 (Central Standard Time),"",0,NaN,657015
18,3NA1Z3VH8,Disk2_3NA1Z3VH8_view5.png,15295,4,12,20,5,A45e1e2U9aOIXPo0EIcPvW1AYaV2,56ac1289f209e0000cdabbe6,6397811991175b14700e5cd4,6393bc7851c6f243862e40e3,Mon Dec 12 2022 13:29:44 GMT-0600 (Central Standard Time),"",0,NaN,657015
26,3SVUN1HJL,Disk1_3SVUN1HJL_view4.png,21902,3,13,37,4,A45e1e2U9aOIXPo0EIcPvW1AYaV2,56ac1289f209e0000cdabbe6,6397811991175b14700e5cd4,6393bc7851c6f243862e40e3,Mon Dec 12 2022 13:29:44 GMT-0600 (Central Standard Time),"",0,NaN,657015
20,I4VF4FG6X,Cylinder2_I4VF4FG6X_view4.png,12979,2,14,29,4,A45e1e2U9aOIXPo0EIcPvW1AYaV2,56ac1289f209e0000cdabbe6,6397811991175b14700e5cd4,6393bc7851c6f243862e40e3,Mon Dec 12 2022 13:29:44 GMT-0600 (Central Standard Time),"",0,NaN,657015
70,XC7T5XT3M,Cylinder1_XC7T5XT3M_view3.png,15265,1,15,136,3,A45e1e2U9aOIXPo0EIcPvW1AYaV2,56ac1289f209e0000cdabbe6,6397811991175b14700e5cd4,6393bc7851c6f243862e40e3,Mon Dec 12 2022 13:29:44 GMT-0600 (Central Standard Time),"",0,NaN,657015
225,QJ7A2VLZJ,Sphere2_QJ7A2VLZJ_view2.png,9392,6,16,634,2,A45e1e2U9aOIXPo0EIcPvW1AYaV2,56ac1289f209e0000cdabbe6,6397811991175b14700e5cd4,6393bc7851c6f243862e40e3,Mon Dec 12 2022 13:29:44 GMT-0600 (Central Standard Time),"",0,NaN,657015
5,L7HJAI5QH,Disk2_L7HJAI5QH_view1.png,16865,4,17,27,1,A45e1e2U9aOIXPo0EIcPvW1AYaV2,56ac1289f209e0000cdabbe6,6397811991175b14700e5cd4,6393bc7851c6f243862e40e3,Mon Dec 12 2022 13:29:44 GMT-0600 (Central Standard Time),"",0,NaN,657015
31,SHCV0RIDU,Cylinder2_SHCV0RIDU_view1.png,13216,2,18,41,1,A45e1e2U9aOIXPo0EIcPvW1AYaV2,56ac1289f209e0000cdabbe6,6397811991175b14700e5cd4,6393bc7851c6f243862e40e3,Mon Dec 12 2022 13:29:44 GMT-0600 (Central Standard Time),"",0,NaN,657015
31,XDSIMROG3,Cylinder2_XDSIMROG3_view2.png,10518,2,19,47,2,A45e1e2U9aOIXPo0EIcPvW1AYaV2,56ac1289f209e0000cdabbe6,6397811991175b14700e5cd4,6393bc7851c6f243862e40e3,Mon Dec 12 2022 13:29:44 GMT-0600 (Central Standard Time),"",0,NaN,657015
53,IHQ35HXKS,Cylinder2_IHQ35HXKS_view3.png,14839,2,20,48,3,A45e1e2U9aOIXPo0EIcPvW1AYaV2,56ac1289f209e0000cdabbe6,6397811991175b14700e5cd4,6393bc7851c6f243862e40e3,Mon Dec 12 2022 13:29:44 GMT-0600 (Central Standard Time),"",0,NaN,657015
8,5G8BZBGDD,Disk1_5G8BZBGDD_view1.png,8376,3,21,32,1,A45e1e2U9aOIXPo0EIcPvW1AYaV2,56ac1289f209e0000cdabbe6,6397811991175b14700e5cd4,6393bc7851c6f243862e40e3,Mon Dec 12 2022 13:29:44 GMT-0600 (Central Standard Time),"",0,NaN,657015
385,80NMDSOCB,Sphere2_80NMDSOCB_view5.png,17482,6,22,862,5,A45e1e2U9aOIXPo0EIcPvW1AYaV2,56ac1289f209e0000cdabbe6,6397811991175b14700e5cd4,6393bc7851c6f243862e40e3,Mon Dec 12 2022 13:29:44 GMT-0600 (Central Standard Time),"",0,NaN,657015
385,VPVRI6MWB,Sphere2_VPVRI6MWB_view1.png,11030,6,23,872,1,A45e1e2U9aOIXPo0EIcPvW1AYaV2,56ac1289f209e0000cdabbe6,6397811991175b14700e5cd4,6393bc7851c6f243862e40e3,Mon Dec 12 2022 13:29:44 GMT-0600 (Central Standard Time),"",0,NaN,657015
227,3N0VYJFQD,Sphere1_3N0VYJFQD_view5.png,28672,5,24,407,5,A45e1e2U9aOIXPo0EIcPvW1AYaV2,56ac1289f209e0000cdabbe6,6397811991175b14700e5cd4,6393bc7851c6f243862e40e3,Mon Dec 12 2022 13:29:44 GMT-0600 (Central Standard Time),"",0,NaN,657015
33,26U5PULZX,Cylinder1_26U5PULZX_view2.png,20083,1,25,101,2,A45e1e2U9aOIXPo0EIcPvW1AYaV2,56ac1289f209e0000cdabbe6,6397811991175b14700e5cd4,6393bc7851c6f243862e40e3,Mon Dec 12 2022 13:29:44 GMT-0600 (Central Standard Time),"",0,NaN,657015
25,OHDA3OCBC,Cylinder2_OHDA3OCBC_view4.png,23448,2,26,49,4,A45e1e2U9aOIXPo0EIcPvW1AYaV2,56ac1289f209e0000cdabbe6,6397811991175b14700e5cd4,6393bc7851c6f243862e40e3,Mon Dec 12 2022 13:29:44 GMT-0600 (Central Standard Time),"",0,NaN,657015
155,QNFD860RN,Sphere1_QNFD860RN_view2.png,9439,5,27,654,2,A45e1e2U9aOIXPo0EIcPvW1AYaV2,56ac1289f209e0000cdabbe6,6397811991175b14700e5cd4,6393bc7851c6f243862e40e3,Mon Dec 12 2022 13:29:44 GMT-0600 (Central Standard Time),"",0,NaN,657015
175,9IFGKGYWD,Sphere1_9IFGKGYWD_view3.png,12764,5,28,634,3,A45e1e2U9aOIXPo0EIcPvW1AYaV2,56ac1289f209e0000cdabbe6,6397811991175b14700e5cd4,6393bc7851c6f243862e40e3,Mon Dec 12 2022 13:29:44 GMT-0600 (Central Standard Time),"",0,NaN,657015
5,SRGKT7J6W,Disk2_SRGKT7J6W_view5.png,13990,4,29,6,5,A45e1e2U9aOIXPo0EIcPvW1AYaV2,56ac1289f209e0000cdabbe6,6397811991175b14700e5cd4,6393bc7851c6f243862e40e3,Mon Dec 12 2022 13:29:44 GMT-0600 (Central Standard Time),"",0,NaN,657015
155,55MKNGUJJ,Sphere1_55MKNGUJJ_view5.png,16318,5,30,314,5,A45e1e2U9aOIXPo0EIcPvW1AYaV2,56ac1289f209e0000cdabbe6,6397811991175b14700e5cd4,6393bc7851c6f243862e40e3,Mon Dec 12 2022 13:29:44 GMT-0600 (Central Standard Time),"",0,NaN,657015
80,VA5C6JYKZ,Cylinder1_VA5C6JYKZ_view5.png,28391,1,1,111,5,AAYL0l9kHwYjHXintJHjVEjiRgI3,558fff05fdf99b3f7aada357,6396303449252b37d38bef3f,6393bc7851c6f243862e40e3,Sun Dec 11 2022 14:32:07 GMT-0500 (Eastern Standard Time),"",1,0,831780
40,QQJOJR0XS,Cylinder1_QQJOJR0XS_view3.png,17344,1,2,74,3,AAYL0l9kHwYjHXintJHjVEjiRgI3,558fff05fdf99b3f7aada357,6396303449252b37d38bef3f,6393bc7851c6f243862e40e3,Sun Dec 11 2022 14:32:07 GMT-0500 (Eastern Standard Time),"",1,0,831780
25,VPKDNRNXX,Disk2_VPKDNRNXX_view3.png,12779,4,3,18,3,AAYL0l9kHwYjHXintJHjVEjiRgI3,558fff05fdf99b3f7aada357,6396303449252b37d38bef3f,6393bc7851c6f243862e40e3,Sun Dec 11 2022 14:32:07 GMT-0500 (Eastern Standard Time),"",1,0,831780
30,YWBCJPVX9,Cylinder2_YWBCJPVX9_view3.png,44663,2,4,38,3,AAYL0l9kHwYjHXintJHjVEjiRgI3,558fff05fdf99b3f7aada357,6396303449252b37d38bef3f,6393bc7851c6f243862e40e3,Sun Dec 11 2022 14:32:07 GMT-0500 (Eastern Standard Time),"",1,0,831780
10,T7OXVFZKO,Disk1_T7OXVFZKO_view5.png,9901,3,5,10,5,AAYL0l9kHwYjHXintJHjVEjiRgI3,558fff05fdf99b3f7aada357,6396303449252b37d38bef3f,6393bc7851c6f243862e40e3,Sun Dec 11 2022 14:32:07 GMT-0500 (Eastern Standard Time),"",1,0,831780
30,L7HJAI5QH,Disk2_L7HJAI5QH_view2.png,70292,4,6,27,2,AAYL0l9kHwYjHXintJHjVEjiRgI3,558fff05fdf99b3f7aada357,6396303449252b37d38bef3f,6393bc7851c6f243862e40e3,Sun Dec 11 2022 14:32:07 GMT-0500 (Eastern Standard Time),"",1,0,831780
100,82DFOODCS,Sphere2_82DFOODCS_view1.png,7695,6,7,295,1,AAYL0l9kHwYjHXintJHjVEjiRgI3,558fff05fdf99b3f7aada357,6396303449252b37d38bef3f,6393bc7851c6f243862e40e3,Sun Dec 11 2022 14:32:07 GMT-0500 (Eastern Standard Time),"",1,0,831780
35,RPXQ5E75S,Disk1_RPXQ5E75S_view2.png,44008,3,8,34,2,AAYL0l9kHwYjHXintJHjVEjiRgI3,558fff05fdf99b3f7aada357,6396303449252b37d38bef3f,6393bc7851c6f243862e40e3,Sun Dec 11 2022 14:32:07 GMT-0500 (Eastern Standard Time),"",1,0,831780
70,BYJKQ0GU9,Cylinder1_BYJKQ0GU9_view4.png,20024,1,9,151,4,AAYL0l9kHwYjHXintJHjVEjiRgI3,558fff05fdf99b3f7aada357,6396303449252b37d38bef3f,6393bc7851c6f243862e40e3,Sun Dec 11 2022 14:32:07 GMT-0500 (Eastern Standard Time),"",1,0,831780
30,GIZUFRSOC,Cylinder1_GIZUFRSOC_view2.png,7953,1,10,57,2,AAYL0l9kHwYjHXintJHjVEjiRgI3,558fff05fdf99b3f7aada357,6396303449252b37d38bef3f,6393bc7851c6f243862e40e3,Sun Dec 11 2022 14:32:07 GMT-0500 (Eastern Standard Time),"",1,0,831780
6,SRGKT7J6W,Disk2_SRGKT7J6W_view2.png,12663,4,11,6,2,AAYL0l9kHwYjHXintJHjVEjiRgI3,558fff05fdf99b3f7aada357,6396303449252b37d38bef3f,6393bc7851c6f243862e40e3,Sun Dec 11 2022 14:32:07 GMT-0500 (Eastern Standard Time),"",1,0,831780
300,KPET24YYP,Sphere2_KPET24YYP_view4.png,12987,6,12,734,4,AAYL0l9kHwYjHXintJHjVEjiRgI3,558fff05fdf99b3f7aada357,6396303449252b37d38bef3f,6393bc7851c6f243862e40e3,Sun Dec 11 2022 14:32:07 GMT-0500 (Eastern Standard Time),"",1,0,831780
150,XC7T5XT3M,Cylinder1_XC7T5XT3M_view5.png,11196,1,13,136,5,AAYL0l9kHwYjHXintJHjVEjiRgI3,558fff05fdf99b3f7aada357,6396303449252b37d38bef3f,6393bc7851c6f243862e40e3,Sun Dec 11 2022 14:32:07 GMT-0500 (Eastern Standard Time),"",1,0,831780
21,NFFYXGFPZ,Disk1_NFFYXGFPZ_view2.png,14352,3,14,21,2,AAYL0l9kHwYjHXintJHjVEjiRgI3,558fff05fdf99b3f7aada357,6396303449252b37d38bef3f,6393bc7851c6f243862e40e3,Sun Dec 11 2022 14:32:07 GMT-0500 (Eastern Standard Time),"",1,0,831780
35,V535C6Z59,Cylinder2_V535C6Z59_view4.png,11955,2,15,50,4,AAYL0l9kHwYjHXintJHjVEjiRgI3,558fff05fdf99b3f7aada357,6396303449252b37d38bef3f,6393bc7851c6f243862e40e3,Sun Dec 11 2022 14:32:07 GMT-0500 (Eastern Standard Time),"",1,0,831780
100,J19F0VAV8,Sphere1_J19F0VAV8_view2.png,5390,5,16,324,2,AAYL0l9kHwYjHXintJHjVEjiRgI3,558fff05fdf99b3f7aada357,6396303449252b37d38bef3f,6393bc7851c6f243862e40e3,Sun Dec 11 2022 14:32:07 GMT-0500 (Eastern Standard Time),"",1,0,831780
15,INCY9WRU3,Disk2_INCY9WRU3_view5.png,33800,4,17,13,5,AAYL0l9kHwYjHXintJHjVEjiRgI3,558fff05fdf99b3f7aada357,6396303449252b37d38bef3f,6393bc7851c6f243862e40e3,Sun Dec 11 2022 14:32:07 GMT-0500 (Eastern Standard Time),"",1,0,831780
30,2AF1RYG89,Cylinder2_2AF1RYG89_view1.png,18355,2,18,31,1,AAYL0l9kHwYjHXintJHjVEjiRgI3,558fff05fdf99b3f7aada357,6396303449252b37d38bef3f,6393bc7851c6f243862e40e3,Sun Dec 11 2022 14:32:07 GMT-0500 (Eastern Standard Time),"",1,0,831780
200,VL08RVUR5,Sphere2_VL08RVUR5_view3.png,161061,6,19,369,3,AAYL0l9kHwYjHXintJHjVEjiRgI3,558fff05fdf99b3f7aada357,6396303449252b37d38bef3f,6393bc7851c6f243862e40e3,Sun Dec 11 2022 14:32:07 GMT-0500 (Eastern Standard Time),"",1,0,831780
250,YQ7UHJ3SX,Sphere1_YQ7UHJ3SX_view4.png,30747,5,20,943,4,AAYL0l9kHwYjHXintJHjVEjiRgI3,558fff05fdf99b3f7aada357,6396303449252b37d38bef3f,6393bc7851c6f243862e40e3,Sun Dec 11 2022 14:32:07 GMT-0500 (Eastern Standard Time),"",1,0,831780
30,B81JI2UKR,Disk1_B81JI2UKR_view3.png,18803,3,21,10,3,AAYL0l9kHwYjHXintJHjVEjiRgI3,558fff05fdf99b3f7aada357,6396303449252b37d38bef3f,6393bc7851c6f243862e40e3,Sun Dec 11 2022 14:32:07 GMT-0500 (Eastern Standard Time),"",1,0,831780
21,RUXPXZYBF,Disk2_RUXPXZYBF_view2.png,15973,4,22,21,2,AAYL0l9kHwYjHXintJHjVEjiRgI3,558fff05fdf99b3f7aada357,6396303449252b37d38bef3f,6393bc7851c6f243862e40e3,Sun Dec 11 2022 14:32:07 GMT-0500 (Eastern Standard Time),"",1,0,831780
9,LJEPH36J5,Cylinder2_LJEPH36J5_view5.png,9459,2,23,9,5,AAYL0l9kHwYjHXintJHjVEjiRgI3,558fff05fdf99b3f7aada357,6396303449252b37d38bef3f,6393bc7851c6f243862e40e3,Sun Dec 11 2022 14:32:07 GMT-0500 (Eastern Standard Time),"",1,0,831780
50,XDSIMROG3,Cylinder2_XDSIMROG3_view2.png,17851,2,24,47,2,AAYL0l9kHwYjHXintJHjVEjiRgI3,558fff05fdf99b3f7aada357,6396303449252b37d38bef3f,6393bc7851c6f243862e40e3,Sun Dec 11 2022 14:32:07 GMT-0500 (Eastern Standard Time),"",1,0,831780
11,P0DDLX60P,Disk1_P0DDLX60P_view4.png,24300,3,25,12,4,AAYL0l9kHwYjHXintJHjVEjiRgI3,558fff05fdf99b3f7aada357,6396303449252b37d38bef3f,6393bc7851c6f243862e40e3,Sun Dec 11 2022 14:32:07 GMT-0500 (Eastern Standard Time),"",1,0,831780
75,M5NR4RF40,Cylinder1_M5NR4RF40_view1.png,61849,1,26,116,1,AAYL0l9kHwYjHXintJHjVEjiRgI3,558fff05fdf99b3f7aada357,6396303449252b37d38bef3f,6393bc7851c6f243862e40e3,Sun Dec 11 2022 14:32:07 GMT-0500 (Eastern Standard Time),"",1,0,831780
275,QFJ15C239,Sphere1_QFJ15C239_view5.png,34343,5,27,987,5,AAYL0l9kHwYjHXintJHjVEjiRgI3,558fff05fdf99b3f7aada357,6396303449252b37d38bef3f,6393bc7851c6f243862e40e3,Sun Dec 11 2022 14:32:07 GMT-0500 (Eastern Standard Time),"",1,0,831780
175,V3Q1CLJY3,Sphere1_V3Q1CLJY3_view2.png,39957,5,28,841,2,AAYL0l9kHwYjHXintJHjVEjiRgI3,558fff05fdf99b3f7aada357,6396303449252b37d38bef3f,6393bc7851c6f243862e40e3,Sun Dec 11 2022 14:32:07 GMT-0500 (Eastern Standard Time),"",1,0,831780
5,SCRT7R5A3,Disk2_SCRT7R5A3_view3.png,14485,4,29,9,3,AAYL0l9kHwYjHXintJHjVEjiRgI3,558fff05fdf99b3f7aada357,6396303449252b37d38bef3f,6393bc7851c6f243862e40e3,Sun Dec 11 2022 14:32:07 GMT-0500 (Eastern Standard Time),"",1,0,831780
25,2JEAZ69Q3,Disk2_2JEAZ69Q3_view4.png,19167,4,30,26,4,AAYL0l9kHwYjHXintJHjVEjiRgI3,558fff05fdf99b3f7aada357,6396303449252b37d38bef3f,6393bc7851c6f243862e40e3,Sun Dec 11 2022 14:32:07 GMT-0500 (Eastern Standard Time),"",1,0,831780
4,WNLI89O27,Disk2_WNLI89O27_view3.png,7328,4,1,16,3,AbP3nwcHzFThMcHmIoq9H7DGgSs1,59baa339ab8d830001fe56f5,6398ce4398da110b5344a721,6393bc7851c6f243862e40e3,Tue Dec 13 2022 11:11:11 GMT-0800 (Pacific Standard Time),"Thanks",0,0,953851
242,82DFOODCS,Sphere2_82DFOODCS_view4.png,9999,6,2,295,4,AbP3nwcHzFThMcHmIoq9H7DGgSs1,59baa339ab8d830001fe56f5,6398ce4398da110b5344a721,6393bc7851c6f243862e40e3,Tue Dec 13 2022 11:11:11 GMT-0800 (Pacific Standard Time),"Thanks",0,0,953851
53,YWBCJPVX9,Cylinder2_YWBCJPVX9_view3.png,27628,2,3,38,3,AbP3nwcHzFThMcHmIoq9H7DGgSs1,59baa339ab8d830001fe56f5,6398ce4398da110b5344a721,6393bc7851c6f243862e40e3,Tue Dec 13 2022 11:11:11 GMT-0800 (Pacific Standard Time),"Thanks",0,0,953851
5,L7HJAI5QH,Disk2_L7HJAI5QH_view3.png,4335,4,4,27,3,AbP3nwcHzFThMcHmIoq9H7DGgSs1,59baa339ab8d830001fe56f5,6398ce4398da110b5344a721,6393bc7851c6f243862e40e3,Tue Dec 13 2022 11:11:11 GMT-0800 (Pacific Standard Time),"Thanks",0,0,953851
67,TVACAARY6,Cylinder1_TVACAARY6_view3.png,10543,1,5,138,3,AbP3nwcHzFThMcHmIoq9H7DGgSs1,59baa339ab8d830001fe56f5,6398ce4398da110b5344a721,6393bc7851c6f243862e40e3,Tue Dec 13 2022 11:11:11 GMT-0800 (Pacific Standard Time),"Thanks",0,0,953851
14,3NA1Z3VH8,Disk2_3NA1Z3VH8_view4.png,9031,4,6,20,4,AbP3nwcHzFThMcHmIoq9H7DGgSs1,59baa339ab8d830001fe56f5,6398ce4398da110b5344a721,6393bc7851c6f243862e40e3,Tue Dec 13 2022 11:11:11 GMT-0800 (Pacific Standard Time),"Thanks",0,0,953851
253,ZOSELZLL0,Sphere1_ZOSELZLL0_view5.png,103713,5,7,996,5,AbP3nwcHzFThMcHmIoq9H7DGgSs1,59baa339ab8d830001fe56f5,6398ce4398da110b5344a721,6393bc7851c6f243862e40e3,Tue Dec 13 2022 11:11:11 GMT-0800 (Pacific Standard Time),"Thanks",0,0,953851
98,7ILGNRK2D,Sphere2_7ILGNRK2D_view1.png,9151,6,8,249,1,AbP3nwcHzFThMcHmIoq9H7DGgSs1,59baa339ab8d830001fe56f5,6398ce4398da110b5344a721,6393bc7851c6f243862e40e3,Tue Dec 13 2022 11:11:11 GMT-0800 (Pacific Standard Time),"Thanks",0,0,953851
123,QJ7A2VLZJ,Sphere2_QJ7A2VLZJ_view5.png,97175,6,9,634,5,AbP3nwcHzFThMcHmIoq9H7DGgSs1,59baa339ab8d830001fe56f5,6398ce4398da110b5344a721,6393bc7851c6f243862e40e3,Tue Dec 13 2022 11:11:11 GMT-0800 (Pacific Standard Time),"Thanks",0,0,953851
126,26U5PULZX,Cylinder1_26U5PULZX_view3.png,470017,1,10,101,3,AbP3nwcHzFThMcHmIoq9H7DGgSs1,59baa339ab8d830001fe56f5,6398ce4398da110b5344a721,6393bc7851c6f243862e40e3,Tue Dec 13 2022 11:11:11 GMT-0800 (Pacific Standard Time),"Thanks",0,0,953851
14,RUXPXZYBF,Disk2_RUXPXZYBF_view1.png,7567,4,11,21,1,AbP3nwcHzFThMcHmIoq9H7DGgSs1,59baa339ab8d830001fe56f5,6398ce4398da110b5344a721,6393bc7851c6f243862e40e3,Tue Dec 13 2022 11:11:11 GMT-0800 (Pacific Standard Time),"Thanks",0,0,953851
132,YQ7UHJ3SX,Sphere1_YQ7UHJ3SX_view1.png,10760,5,12,943,1,AbP3nwcHzFThMcHmIoq9H7DGgSs1,59baa339ab8d830001fe56f5,6398ce4398da110b5344a721,6393bc7851c6f243862e40e3,Tue Dec 13 2022 11:11:11 GMT-0800 (Pacific Standard Time),"Thanks",0,0,953851
375,VPVRI6MWB,Sphere2_VPVRI6MWB_view4.png,9318,6,13,872,4,AbP3nwcHzFThMcHmIoq9H7DGgSs1,59baa339ab8d830001fe56f5,6398ce4398da110b5344a721,6393bc7851c6f243862e40e3,Tue Dec 13 2022 11:11:11 GMT-0800 (Pacific Standard Time),"Thanks",0,0,953851
85,IHQ35HXKS,Cylinder2_IHQ35HXKS_view1.png,14037,2,14,48,1,AbP3nwcHzFThMcHmIoq9H7DGgSs1,59baa339ab8d830001fe56f5,6398ce4398da110b5344a721,6393bc7851c6f243862e40e3,Tue Dec 13 2022 11:11:11 GMT-0800 (Pacific Standard Time),"Thanks",0,0,953851
39,RPXQ5E75S,Disk1_RPXQ5E75S_view5.png,12910,3,15,34,5,AbP3nwcHzFThMcHmIoq9H7DGgSs1,59baa339ab8d830001fe56f5,6398ce4398da110b5344a721,6393bc7851c6f243862e40e3,Tue Dec 13 2022 11:11:11 GMT-0800 (Pacific Standard Time),"Thanks",0,0,953851
16,4UGDYQ3UM,Disk1_4UGDYQ3UM_view5.png,8575,3,16,15,5,AbP3nwcHzFThMcHmIoq9H7DGgSs1,59baa339ab8d830001fe56f5,6398ce4398da110b5344a721,6393bc7851c6f243862e40e3,Tue Dec 13 2022 11:11:11 GMT-0800 (Pacific Standard Time),"Thanks",0,0,953851
223,QNFD860RN,Sphere1_QNFD860RN_view1.png,17672,5,17,654,1,AbP3nwcHzFThMcHmIoq9H7DGgSs1,59baa339ab8d830001fe56f5,6398ce4398da110b5344a721,6393bc7851c6f243862e40e3,Tue Dec 13 2022 11:11:11 GMT-0800 (Pacific Standard Time),"Thanks",0,0,953851
202,3N0VYJFQD,Sphere1_3N0VYJFQD_view2.png,9687,5,18,407,2,AbP3nwcHzFThMcHmIoq9H7DGgSs1,59baa339ab8d830001fe56f5,6398ce4398da110b5344a721,6393bc7851c6f243862e40e3,Tue Dec 13 2022 11:11:11 GMT-0800 (Pacific Standard Time),"Thanks",0,0,953851
15,P0DDLX60P,Disk1_P0DDLX60P_view5.png,6876,3,19,12,5,AbP3nwcHzFThMcHmIoq9H7DGgSs1,59baa339ab8d830001fe56f5,6398ce4398da110b5344a721,6393bc7851c6f243862e40e3,Tue Dec 13 2022 11:11:11 GMT-0800 (Pacific Standard Time),"Thanks",0,0,953851
249,9IFGKGYWD,Sphere1_9IFGKGYWD_view3.png,10800,5,20,634,3,AbP3nwcHzFThMcHmIoq9H7DGgSs1,59baa339ab8d830001fe56f5,6398ce4398da110b5344a721,6393bc7851c6f243862e40e3,Tue Dec 13 2022 11:11:11 GMT-0800 (Pacific Standard Time),"Thanks",0,0,953851
187,KGONB1PPB,Sphere2_KGONB1PPB_view3.png,10184,6,21,527,3,AbP3nwcHzFThMcHmIoq9H7DGgSs1,59baa339ab8d830001fe56f5,6398ce4398da110b5344a721,6393bc7851c6f243862e40e3,Tue Dec 13 2022 11:11:11 GMT-0800 (Pacific Standard Time),"Thanks",0,0,953851
15,NFFYXGFPZ,Disk1_NFFYXGFPZ_view1.png,8541,3,22,21,1,AbP3nwcHzFThMcHmIoq9H7DGgSs1,59baa339ab8d830001fe56f5,6398ce4398da110b5344a721,6393bc7851c6f243862e40e3,Tue Dec 13 2022 11:11:11 GMT-0800 (Pacific Standard Time),"Thanks",0,0,953851
267,QFJ15C239,Sphere1_QFJ15C239_view1.png,9561,5,23,987,1,AbP3nwcHzFThMcHmIoq9H7DGgSs1,59baa339ab8d830001fe56f5,6398ce4398da110b5344a721,6393bc7851c6f243862e40e3,Tue Dec 13 2022 11:11:11 GMT-0800 (Pacific Standard Time),"Thanks",0,0,953851
42,5G8BZBGDD,Disk1_5G8BZBGDD_view4.png,7301,3,24,32,4,AbP3nwcHzFThMcHmIoq9H7DGgSs1,59baa339ab8d830001fe56f5,6398ce4398da110b5344a721,6393bc7851c6f243862e40e3,Tue Dec 13 2022 11:11:11 GMT-0800 (Pacific Standard Time),"Thanks",0,0,953851
27,2JEAZ69Q3,Disk2_2JEAZ69Q3_view2.png,11304,4,25,26,2,AbP3nwcHzFThMcHmIoq9H7DGgSs1,59baa339ab8d830001fe56f5,6398ce4398da110b5344a721,6393bc7851c6f243862e40e3,Tue Dec 13 2022 11:11:11 GMT-0800 (Pacific Standard Time),"Thanks",0,0,953851
42,V1KH4ZGWT,Cylinder2_V1KH4ZGWT_view3.png,7807,2,26,31,3,AbP3nwcHzFThMcHmIoq9H7DGgSs1,59baa339ab8d830001fe56f5,6398ce4398da110b5344a721,6393bc7851c6f243862e40e3,Tue Dec 13 2022 11:11:11 GMT-0800 (Pacific Standard Time),"Thanks",0,0,953851
39,GIZUFRSOC,Cylinder1_GIZUFRSOC_view5.png,10566,1,27,57,5,AbP3nwcHzFThMcHmIoq9H7DGgSs1,59baa339ab8d830001fe56f5,6398ce4398da110b5344a721,6393bc7851c6f243862e40e3,Tue Dec 13 2022 11:11:11 GMT-0800 (Pacific Standard Time),"Thanks",0,0,953851
87,80NMDSOCB,Sphere2_80NMDSOCB_view1.png,13318,6,28,862,1,AbP3nwcHzFThMcHmIoq9H7DGgSs1,59baa339ab8d830001fe56f5,6398ce4398da110b5344a721,6393bc7851c6f243862e40e3,Tue Dec 13 2022 11:11:11 GMT-0800 (Pacific Standard Time),"Thanks",0,0,953851
21,VPKDNRNXX,Disk2_VPKDNRNXX_view4.png,7575,4,29,18,4,AbP3nwcHzFThMcHmIoq9H7DGgSs1,59baa339ab8d830001fe56f5,6398ce4398da110b5344a721,6393bc7851c6f243862e40e3,Tue Dec 13 2022 11:11:11 GMT-0800 (Pacific Standard Time),"Thanks",0,0,953851
283,KPET24YYP,Sphere2_KPET24YYP_view5.png,10511,6,30,734,5,AbP3nwcHzFThMcHmIoq9H7DGgSs1,59baa339ab8d830001fe56f5,6398ce4398da110b5344a721,6393bc7851c6f243862e40e3,Tue Dec 13 2022 11:11:11 GMT-0800 (Pacific Standard Time),"Thanks",0,0,953851
25,GIZUFRSOC,Cylinder1_GIZUFRSOC_view4.png,18234,1,1,57,4,B86RPfZmTjMsjHco1sHMJfryict2,614e2b2bd900d5f91096ac12,6395fbfe84bac51e9e0b6bfb,6393bc7851c6f243862e40e3,Sun Dec 11 2022 10:54:29 GMT-0500 (Eastern Standard Time),"",2,0,601045
250,9IFGKGYWD,Sphere1_9IFGKGYWD_view4.png,12487,5,2,634,4,B86RPfZmTjMsjHco1sHMJfryict2,614e2b2bd900d5f91096ac12,6395fbfe84bac51e9e0b6bfb,6393bc7851c6f243862e40e3,Sun Dec 11 2022 10:54:29 GMT-0500 (Eastern Standard Time),"",2,0,601045
7,MGZBUG5C3,Disk1_MGZBUG5C3_view1.png,11781,3,3,23,1,B86RPfZmTjMsjHco1sHMJfryict2,614e2b2bd900d5f91096ac12,6395fbfe84bac51e9e0b6bfb,6393bc7851c6f243862e40e3,Sun Dec 11 2022 10:54:29 GMT-0500 (Eastern Standard Time),"",2,0,601045
40,V1KH4ZGWT,Cylinder2_V1KH4ZGWT_view2.png,23267,2,4,31,2,B86RPfZmTjMsjHco1sHMJfryict2,614e2b2bd900d5f91096ac12,6395fbfe84bac51e9e0b6bfb,6393bc7851c6f243862e40e3,Sun Dec 11 2022 10:54:29 GMT-0500 (Eastern Standard Time),"",2,0,601045
200,82DFOODCS,Sphere2_82DFOODCS_view2.png,14609,6,5,295,2,B86RPfZmTjMsjHco1sHMJfryict2,614e2b2bd900d5f91096ac12,6395fbfe84bac51e9e0b6bfb,6393bc7851c6f243862e40e3,Sun Dec 11 2022 10:54:29 GMT-0500 (Eastern Standard Time),"",2,0,601045
25,QQJOJR0XS,Cylinder1_QQJOJR0XS_view1.png,10307,1,6,74,1,B86RPfZmTjMsjHco1sHMJfryict2,614e2b2bd900d5f91096ac12,6395fbfe84bac51e9e0b6bfb,6393bc7851c6f243862e40e3,Sun Dec 11 2022 10:54:29 GMT-0500 (Eastern Standard Time),"",2,0,601045
7,3SVUN1HJL,Disk1_3SVUN1HJL_view1.png,4587,3,7,37,1,B86RPfZmTjMsjHco1sHMJfryict2,614e2b2bd900d5f91096ac12,6395fbfe84bac51e9e0b6bfb,6393bc7851c6f243862e40e3,Sun Dec 11 2022 10:54:29 GMT-0500 (Eastern Standard Time),"",2,0,601045
140,KPET24YYP,Sphere2_KPET24YYP_view3.png,16240,6,8,734,3,B86RPfZmTjMsjHco1sHMJfryict2,614e2b2bd900d5f91096ac12,6395fbfe84bac51e9e0b6bfb,6393bc7851c6f243862e40e3,Sun Dec 11 2022 10:54:29 GMT-0500 (Eastern Standard Time),"",2,0,601045
35,IHQ35HXKS,Cylinder2_IHQ35HXKS_view1.png,14234,2,9,48,1,B86RPfZmTjMsjHco1sHMJfryict2,614e2b2bd900d5f91096ac12,6395fbfe84bac51e9e0b6bfb,6393bc7851c6f243862e40e3,Sun Dec 11 2022 10:54:29 GMT-0500 (Eastern Standard Time),"",2,0,601045
20,3NA1Z3VH8,Disk2_3NA1Z3VH8_view2.png,19287,4,10,20,2,B86RPfZmTjMsjHco1sHMJfryict2,614e2b2bd900d5f91096ac12,6395fbfe84bac51e9e0b6bfb,6393bc7851c6f243862e40e3,Sun Dec 11 2022 10:54:29 GMT-0500 (Eastern Standard Time),"",2,0,601045
14,RUXPXZYBF,Disk2_RUXPXZYBF_view1.png,9957,4,11,21,1,B86RPfZmTjMsjHco1sHMJfryict2,614e2b2bd900d5f91096ac12,6395fbfe84bac51e9e0b6bfb,6393bc7851c6f243862e40e3,Sun Dec 11 2022 10:54:29 GMT-0500 (Eastern Standard Time),"",2,0,601045
13,2GCZP1BYJ,Disk1_2GCZP1BYJ_view2.png,19747,3,12,11,2,B86RPfZmTjMsjHco1sHMJfryict2,614e2b2bd900d5f91096ac12,6395fbfe84bac51e9e0b6bfb,6393bc7851c6f243862e40e3,Sun Dec 11 2022 10:54:29 GMT-0500 (Eastern Standard Time),"",2,0,601045
12,INCY9WRU3,Disk2_INCY9WRU3_view3.png,9794,4,13,13,3,B86RPfZmTjMsjHco1sHMJfryict2,614e2b2bd900d5f91096ac12,6395fbfe84bac51e9e0b6bfb,6393bc7851c6f243862e40e3,Sun Dec 11 2022 10:54:29 GMT-0500 (Eastern Standard Time),"",2,0,601045
200,J19F0VAV8,Sphere1_J19F0VAV8_view1.png,9631,5,14,324,1,B86RPfZmTjMsjHco1sHMJfryict2,614e2b2bd900d5f91096ac12,6395fbfe84bac51e9e0b6bfb,6393bc7851c6f243862e40e3,Sun Dec 11 2022 10:54:29 GMT-0500 (Eastern Standard Time),"",2,0,601045
9,LJEPH36J5,Cylinder2_LJEPH36J5_view5.png,17717,2,15,9,5,B86RPfZmTjMsjHco1sHMJfryict2,614e2b2bd900d5f91096ac12,6395fbfe84bac51e9e0b6bfb,6393bc7851c6f243862e40e3,Sun Dec 11 2022 10:54:29 GMT-0500 (Eastern Standard Time),"",2,0,601045
180,YQ7UHJ3SX,Sphere1_YQ7UHJ3SX_view1.png,9796,5,16,943,1,B86RPfZmTjMsjHco1sHMJfryict2,614e2b2bd900d5f91096ac12,6395fbfe84bac51e9e0b6bfb,6393bc7851c6f243862e40e3,Sun Dec 11 2022 10:54:29 GMT-0500 (Eastern Standard Time),"",2,0,601045
15,2JEAZ69Q3,Disk2_2JEAZ69Q3_view3.png,8635,4,17,26,3,B86RPfZmTjMsjHco1sHMJfryict2,614e2b2bd900d5f91096ac12,6395fbfe84bac51e9e0b6bfb,6393bc7851c6f243862e40e3,Sun Dec 11 2022 10:54:29 GMT-0500 (Eastern Standard Time),"",2,0,601045
10,SRGKT7J6W,Disk2_SRGKT7J6W_view3.png,5356,4,18,6,3,B86RPfZmTjMsjHco1sHMJfryict2,614e2b2bd900d5f91096ac12,6395fbfe84bac51e9e0b6bfb,6393bc7851c6f243862e40e3,Sun Dec 11 2022 10:54:29 GMT-0500 (Eastern Standard Time),"",2,0,601045
65,M5NR4RF40,Cylinder1_M5NR4RF40_view2.png,10918,1,19,116,2,B86RPfZmTjMsjHco1sHMJfryict2,614e2b2bd900d5f91096ac12,6395fbfe84bac51e9e0b6bfb,6393bc7851c6f243862e40e3,Sun Dec 11 2022 10:54:29 GMT-0500 (Eastern Standard Time),"",2,0,601045
40,XDSIMROG3,Cylinder2_XDSIMROG3_view3.png,18256,2,20,47,3,B86RPfZmTjMsjHco1sHMJfryict2,614e2b2bd900d5f91096ac12,6395fbfe84bac51e9e0b6bfb,6393bc7851c6f243862e40e3,Sun Dec 11 2022 10:54:29 GMT-0500 (Eastern Standard Time),"",2,0,601045
180,3N0VYJFQD,Sphere1_3N0VYJFQD_view4.png,6585,5,21,407,4,B86RPfZmTjMsjHco1sHMJfryict2,614e2b2bd900d5f91096ac12,6395fbfe84bac51e9e0b6bfb,6393bc7851c6f243862e40e3,Sun Dec 11 2022 10:54:29 GMT-0500 (Eastern Standard Time),"",2,0,601045
34,5G8BZBGDD,Disk1_5G8BZBGDD_view5.png,22106,3,22,32,5,B86RPfZmTjMsjHco1sHMJfryict2,614e2b2bd900d5f91096ac12,6395fbfe84bac51e9e0b6bfb,6393bc7851c6f243862e40e3,Sun Dec 11 2022 10:54:29 GMT-0500 (Eastern Standard Time),"",2,0,601045
30,SHCV0RIDU,Cylinder2_SHCV0RIDU_view2.png,18712,2,23,41,2,B86RPfZmTjMsjHco1sHMJfryict2,614e2b2bd900d5f91096ac12,6395fbfe84bac51e9e0b6bfb,6393bc7851c6f243862e40e3,Sun Dec 11 2022 10:54:29 GMT-0500 (Eastern Standard Time),"",2,0,601045
25,KZPZYX6I2,Disk2_KZPZYX6I2_view4.png,39285,4,24,22,4,B86RPfZmTjMsjHco1sHMJfryict2,614e2b2bd900d5f91096ac12,6395fbfe84bac51e9e0b6bfb,6393bc7851c6f243862e40e3,Sun Dec 11 2022 10:54:29 GMT-0500 (Eastern Standard Time),"",2,0,601045
400,ZOSELZLL0,Sphere1_ZOSELZLL0_view5.png,117218,5,25,996,5,B86RPfZmTjMsjHco1sHMJfryict2,614e2b2bd900d5f91096ac12,6395fbfe84bac51e9e0b6bfb,6393bc7851c6f243862e40e3,Sun Dec 11 2022 10:54:29 GMT-0500 (Eastern Standard Time),"",2,0,601045
150,KGONB1PPB,Sphere2_KGONB1PPB_view2.png,21329,6,26,527,2,B86RPfZmTjMsjHco1sHMJfryict2,614e2b2bd900d5f91096ac12,6395fbfe84bac51e9e0b6bfb,6393bc7851c6f243862e40e3,Sun Dec 11 2022 10:54:29 GMT-0500 (Eastern Standard Time),"",2,0,601045
60,26U5PULZX,Cylinder1_26U5PULZX_view3.png,28515,1,27,101,3,B86RPfZmTjMsjHco1sHMJfryict2,614e2b2bd900d5f91096ac12,6395fbfe84bac51e9e0b6bfb,6393bc7851c6f243862e40e3,Sun Dec 11 2022 10:54:29 GMT-0500 (Eastern Standard Time),"",2,0,601045
28,L7HJAI5QH,Disk2_L7HJAI5QH_view5.png,23928,4,28,27,5,B86RPfZmTjMsjHco1sHMJfryict2,614e2b2bd900d5f91096ac12,6395fbfe84bac51e9e0b6bfb,6393bc7851c6f243862e40e3,Sun Dec 11 2022 10:54:29 GMT-0500 (Eastern Standard Time),"",2,0,601045
60,RPXD8F8A1,Cylinder1_RPXD8F8A1_view5.png,25011,1,29,168,5,B86RPfZmTjMsjHco1sHMJfryict2,614e2b2bd900d5f91096ac12,6395fbfe84bac51e9e0b6bfb,6393bc7851c6f243862e40e3,Sun Dec 11 2022 10:54:29 GMT-0500 (Eastern Standard Time),"",2,0,601045
150,6YS8K4A4Q,Sphere1_6YS8K4A4Q_view3.png,33410,5,30,619,3,B86RPfZmTjMsjHco1sHMJfryict2,614e2b2bd900d5f91096ac12,6395fbfe84bac51e9e0b6bfb,6393bc7851c6f243862e40e3,Sun Dec 11 2022 10:54:29 GMT-0500 (Eastern Standard Time),"",2,0,601045
124,VL08RVUR5,Sphere2_VL08RVUR5_view5.png,6623,6,1,369,5,BecKc44dgbXamzLQVXpXAuXvnoR2,58d165dff7a08b000176c54c,6398fb4cb635aeca4433c8ed,6393bc7851c6f243862e40e3,Tue Dec 13 2022 17:23:16 GMT-0500 (Eastern Standard Time),"",2,0,333957
20,L7HJAI5QH,Disk2_L7HJAI5QH_view2.png,16860,4,2,27,2,BecKc44dgbXamzLQVXpXAuXvnoR2,58d165dff7a08b000176c54c,6398fb4cb635aeca4433c8ed,6393bc7851c6f243862e40e3,Tue Dec 13 2022 17:23:16 GMT-0500 (Eastern Standard Time),"",2,0,333957
118,NIB1FRFXN,Sphere2_NIB1FRFXN_view2.png,7495,6,3,388,2,BecKc44dgbXamzLQVXpXAuXvnoR2,58d165dff7a08b000176c54c,6398fb4cb635aeca4433c8ed,6393bc7851c6f243862e40e3,Tue Dec 13 2022 17:23:16 GMT-0500 (Eastern Standard Time),"",2,0,333957
12,WNLI89O27,Disk2_WNLI89O27_view5.png,10932,4,4,16,5,BecKc44dgbXamzLQVXpXAuXvnoR2,58d165dff7a08b000176c54c,6398fb4cb635aeca4433c8ed,6393bc7851c6f243862e40e3,Tue Dec 13 2022 17:23:16 GMT-0500 (Eastern Standard Time),"",2,0,333957
9,SCRT7R5A3,Disk2_SCRT7R5A3_view2.png,12994,4,5,9,2,BecKc44dgbXamzLQVXpXAuXvnoR2,58d165dff7a08b000176c54c,6398fb4cb635aeca4433c8ed,6393bc7851c6f243862e40e3,Tue Dec 13 2022 17:23:16 GMT-0500 (Eastern Standard Time),"",2,0,333957
45,YWBCJPVX9,Cylinder2_YWBCJPVX9_view1.png,5095,2,6,38,1,BecKc44dgbXamzLQVXpXAuXvnoR2,58d165dff7a08b000176c54c,6398fb4cb635aeca4433c8ed,6393bc7851c6f243862e40e3,Tue Dec 13 2022 17:23:16 GMT-0500 (Eastern Standard Time),"",2,0,333957
250,V3Q1CLJY3,Sphere1_V3Q1CLJY3_view2.png,18433,5,7,841,2,BecKc44dgbXamzLQVXpXAuXvnoR2,58d165dff7a08b000176c54c,6398fb4cb635aeca4433c8ed,6393bc7851c6f243862e40e3,Tue Dec 13 2022 17:23:16 GMT-0500 (Eastern Standard Time),"",2,0,333957
22,V1KH4ZGWT,Cylinder2_V1KH4ZGWT_view2.png,22732,2,8,31,2,BecKc44dgbXamzLQVXpXAuXvnoR2,58d165dff7a08b000176c54c,6398fb4cb635aeca4433c8ed,6393bc7851c6f243862e40e3,Tue Dec 13 2022 17:23:16 GMT-0500 (Eastern Standard Time),"",2,0,333957
300,ZOSELZLL0,Sphere1_ZOSELZLL0_view2.png,8073,5,9,996,2,BecKc44dgbXamzLQVXpXAuXvnoR2,58d165dff7a08b000176c54c,6398fb4cb635aeca4433c8ed,6393bc7851c6f243862e40e3,Tue Dec 13 2022 17:23:16 GMT-0500 (Eastern Standard Time),"",2,0,333957
14,P0DDLX60P,Disk1_P0DDLX60P_view3.png,9739,3,10,12,3,BecKc44dgbXamzLQVXpXAuXvnoR2,58d165dff7a08b000176c54c,6398fb4cb635aeca4433c8ed,6393bc7851c6f243862e40e3,Tue Dec 13 2022 17:23:16 GMT-0500 (Eastern Standard Time),"",2,0,333957
67,RPXD8F8A1,Cylinder1_RPXD8F8A1_view3.png,11146,1,11,168,3,BecKc44dgbXamzLQVXpXAuXvnoR2,58d165dff7a08b000176c54c,6398fb4cb635aeca4433c8ed,6393bc7851c6f243862e40e3,Tue Dec 13 2022 17:23:16 GMT-0500 (Eastern Standard Time),"",2,0,333957
234,YQ7UHJ3SX,Sphere1_YQ7UHJ3SX_view2.png,14601,5,12,943,2,BecKc44dgbXamzLQVXpXAuXvnoR2,58d165dff7a08b000176c54c,6398fb4cb635aeca4433c8ed,6393bc7851c6f243862e40e3,Tue Dec 13 2022 17:23:16 GMT-0500 (Eastern Standard Time),"",2,0,333957
250,KGONB1PPB,Sphere2_KGONB1PPB_view4.png,11538,6,13,527,4,BecKc44dgbXamzLQVXpXAuXvnoR2,58d165dff7a08b000176c54c,6398fb4cb635aeca4433c8ed,6393bc7851c6f243862e40e3,Tue Dec 13 2022 17:23:16 GMT-0500 (Eastern Standard Time),"",2,0,333957
28,I4VF4FG6X,Cylinder2_I4VF4FG6X_view4.png,16802,2,14,29,4,BecKc44dgbXamzLQVXpXAuXvnoR2,58d165dff7a08b000176c54c,6398fb4cb635aeca4433c8ed,6393bc7851c6f243862e40e3,Tue Dec 13 2022 17:23:16 GMT-0500 (Eastern Standard Time),"",2,0,333957
11,B81JI2UKR,Disk1_B81JI2UKR_view1.png,10254,3,15,10,1,BecKc44dgbXamzLQVXpXAuXvnoR2,58d165dff7a08b000176c54c,6398fb4cb635aeca4433c8ed,6393bc7851c6f243862e40e3,Tue Dec 13 2022 17:23:16 GMT-0500 (Eastern Standard Time),"",2,0,333957
270,80NMDSOCB,Sphere2_80NMDSOCB_view5.png,9268,6,16,862,5,BecKc44dgbXamzLQVXpXAuXvnoR2,58d165dff7a08b000176c54c,6398fb4cb635aeca4433c8ed,6393bc7851c6f243862e40e3,Tue Dec 13 2022 17:23:16 GMT-0500 (Eastern Standard Time),"",2,0,333957
45,SHCV0RIDU,Cylinder2_SHCV0RIDU_view3.png,8839,2,17,41,3,BecKc44dgbXamzLQVXpXAuXvnoR2,58d165dff7a08b000176c54c,6398fb4cb635aeca4433c8ed,6393bc7851c6f243862e40e3,Tue Dec 13 2022 17:23:16 GMT-0500 (Eastern Standard Time),"",2,0,333957
37,5G8BZBGDD,Disk1_5G8BZBGDD_view2.png,12148,3,18,32,2,BecKc44dgbXamzLQVXpXAuXvnoR2,58d165dff7a08b000176c54c,6398fb4cb635aeca4433c8ed,6393bc7851c6f243862e40e3,Tue Dec 13 2022 17:23:16 GMT-0500 (Eastern Standard Time),"",2,0,333957
82,M5NR4RF40,Cylinder1_M5NR4RF40_view3.png,11131,1,19,116,3,BecKc44dgbXamzLQVXpXAuXvnoR2,58d165dff7a08b000176c54c,6398fb4cb635aeca4433c8ed,6393bc7851c6f243862e40e3,Tue Dec 13 2022 17:23:16 GMT-0500 (Eastern Standard Time),"",2,0,333957
197,QJ7A2VLZJ,Sphere2_QJ7A2VLZJ_view3.png,8618,6,20,634,3,BecKc44dgbXamzLQVXpXAuXvnoR2,58d165dff7a08b000176c54c,6398fb4cb635aeca4433c8ed,6393bc7851c6f243862e40e3,Tue Dec 13 2022 17:23:16 GMT-0500 (Eastern Standard Time),"",2,0,333957
205,6YS8K4A4Q,Sphere1_6YS8K4A4Q_view4.png,15179,5,21,619,4,BecKc44dgbXamzLQVXpXAuXvnoR2,58d165dff7a08b000176c54c,6398fb4cb635aeca4433c8ed,6393bc7851c6f243862e40e3,Tue Dec 13 2022 17:23:16 GMT-0500 (Eastern Standard Time),"",2,0,333957
187,QNFD860RN,Sphere1_QNFD860RN_view3.png,8026,5,22,654,3,BecKc44dgbXamzLQVXpXAuXvnoR2,58d165dff7a08b000176c54c,6398fb4cb635aeca4433c8ed,6393bc7851c6f243862e40e3,Tue Dec 13 2022 17:23:16 GMT-0500 (Eastern Standard Time),"",2,0,333957
68,I0WDT82C3,Cylinder1_I0WDT82C3_view5.png,9810,1,23,116,5,BecKc44dgbXamzLQVXpXAuXvnoR2,58d165dff7a08b000176c54c,6398fb4cb635aeca4433c8ed,6393bc7851c6f243862e40e3,Tue Dec 13 2022 17:23:16 GMT-0500 (Eastern Standard Time),"",2,0,333957
6,SRGKT7J6W,Disk2_SRGKT7J6W_view2.png,8922,4,24,6,2,BecKc44dgbXamzLQVXpXAuXvnoR2,58d165dff7a08b000176c54c,6398fb4cb635aeca4433c8ed,6393bc7851c6f243862e40e3,Tue Dec 13 2022 17:23:16 GMT-0500 (Eastern Standard Time),"",2,0,333957
12,VPKDNRNXX,Disk2_VPKDNRNXX_view1.png,10790,4,25,18,1,BecKc44dgbXamzLQVXpXAuXvnoR2,58d165dff7a08b000176c54c,6398fb4cb635aeca4433c8ed,6393bc7851c6f243862e40e3,Tue Dec 13 2022 17:23:16 GMT-0500 (Eastern Standard Time),"",2,0,333957
18,2JEAZ69Q3,Disk2_2JEAZ69Q3_view4.png,10487,4,26,26,4,BecKc44dgbXamzLQVXpXAuXvnoR2,58d165dff7a08b000176c54c,6398fb4cb635aeca4433c8ed,6393bc7851c6f243862e40e3,Tue Dec 13 2022 17:23:16 GMT-0500 (Eastern Standard Time),"",2,0,333957
15,MGZBUG5C3,Disk1_MGZBUG5C3_view4.png,6771,3,27,23,4,BecKc44dgbXamzLQVXpXAuXvnoR2,58d165dff7a08b000176c54c,6398fb4cb635aeca4433c8ed,6393bc7851c6f243862e40e3,Tue Dec 13 2022 17:23:16 GMT-0500 (Eastern Standard Time),"",2,0,333957
7,LJEPH36J5,Cylinder2_LJEPH36J5_view3.png,12297,2,28,9,3,BecKc44dgbXamzLQVXpXAuXvnoR2,58d165dff7a08b000176c54c,6398fb4cb635aeca4433c8ed,6393bc7851c6f243862e40e3,Tue Dec 13 2022 17:23:16 GMT-0500 (Eastern Standard Time),"",2,0,333957
126,KPET24YYP,Sphere2_KPET24YYP_view3.png,10587,6,29,734,3,BecKc44dgbXamzLQVXpXAuXvnoR2,58d165dff7a08b000176c54c,6398fb4cb635aeca4433c8ed,6393bc7851c6f243862e40e3,Tue Dec 13 2022 17:23:16 GMT-0500 (Eastern Standard Time),"",2,0,333957
8,INCY9WRU3,Disk2_INCY9WRU3_view3.png,7680,4,30,13,3,BecKc44dgbXamzLQVXpXAuXvnoR2,58d165dff7a08b000176c54c,6398fb4cb635aeca4433c8ed,6393bc7851c6f243862e40e3,Tue Dec 13 2022 17:23:16 GMT-0500 (Eastern Standard Time),"",2,0,333957
5,L7HJAI5QH,Disk2_L7HJAI5QH_view1.png,37464,4,1,27,1,CbkLXIzveRhHOIEmbQkMsuHVDoO2,628e55a8f9ad59c287bc542d,6393cea3487ec3aa7c73b6fa,6393bc7851c6f243862e40e3,Fri Dec 09 2022 18:11:24 GMT-0600 (Central Standard Time),"",0,0,1455391
7,VPKDNRNXX,Disk2_VPKDNRNXX_view1.png,16372,4,2,18,1,CbkLXIzveRhHOIEmbQkMsuHVDoO2,628e55a8f9ad59c287bc542d,6393cea3487ec3aa7c73b6fa,6393bc7851c6f243862e40e3,Fri Dec 09 2022 18:11:24 GMT-0600 (Central Standard Time),"",0,0,1455391
800,82DFOODCS,Sphere2_82DFOODCS_view2.png,84871,6,3,295,2,CbkLXIzveRhHOIEmbQkMsuHVDoO2,628e55a8f9ad59c287bc542d,6393cea3487ec3aa7c73b6fa,6393bc7851c6f243862e40e3,Fri Dec 09 2022 18:11:24 GMT-0600 (Central Standard Time),"",0,0,1455391
95,26U5PULZX,Cylinder1_26U5PULZX_view1.png,112935,1,4,101,1,CbkLXIzveRhHOIEmbQkMsuHVDoO2,628e55a8f9ad59c287bc542d,6393cea3487ec3aa7c73b6fa,6393bc7851c6f243862e40e3,Fri Dec 09 2022 18:11:24 GMT-0600 (Central Standard Time),"",0,0,1455391
45,XC7T5XT3M,Cylinder1_XC7T5XT3M_view5.png,57311,1,5,136,5,CbkLXIzveRhHOIEmbQkMsuHVDoO2,628e55a8f9ad59c287bc542d,6393cea3487ec3aa7c73b6fa,6393bc7851c6f243862e40e3,Fri Dec 09 2022 18:11:24 GMT-0600 (Central Standard Time),"",0,0,1455391
865,80NMDSOCB,Sphere2_80NMDSOCB_view5.png,96903,6,6,862,5,CbkLXIzveRhHOIEmbQkMsuHVDoO2,628e55a8f9ad59c287bc542d,6393cea3487ec3aa7c73b6fa,6393bc7851c6f243862e40e3,Fri Dec 09 2022 18:11:24 GMT-0600 (Central Standard Time),"",0,0,1455391
10,2GCZP1BYJ,Disk1_2GCZP1BYJ_view4.png,32015,3,7,11,4,CbkLXIzveRhHOIEmbQkMsuHVDoO2,628e55a8f9ad59c287bc542d,6393cea3487ec3aa7c73b6fa,6393bc7851c6f243862e40e3,Fri Dec 09 2022 18:11:24 GMT-0600 (Central Standard Time),"",0,0,1455391
625,9IFGKGYWD,Sphere1_9IFGKGYWD_view1.png,112303,5,8,634,1,CbkLXIzveRhHOIEmbQkMsuHVDoO2,628e55a8f9ad59c287bc542d,6393cea3487ec3aa7c73b6fa,6393bc7851c6f243862e40e3,Fri Dec 09 2022 18:11:24 GMT-0600 (Central Standard Time),"",0,0,1455391
575,QNFD860RN,Sphere1_QNFD860RN_view5.png,69695,5,9,654,5,CbkLXIzveRhHOIEmbQkMsuHVDoO2,628e55a8f9ad59c287bc542d,6393cea3487ec3aa7c73b6fa,6393bc7851c6f243862e40e3,Fri Dec 09 2022 18:11:24 GMT-0600 (Central Standard Time),"",0,0,1455391
13,WNLI89O27,Disk2_WNLI89O27_view4.png,18759,4,10,16,4,CbkLXIzveRhHOIEmbQkMsuHVDoO2,628e55a8f9ad59c287bc542d,6393cea3487ec3aa7c73b6fa,6393bc7851c6f243862e40e3,Fri Dec 09 2022 18:11:24 GMT-0600 (Central Standard Time),"",0,0,1455391
33,I4VF4FG6X,Cylinder2_I4VF4FG6X_view1.png,39319,2,11,29,1,CbkLXIzveRhHOIEmbQkMsuHVDoO2,628e55a8f9ad59c287bc542d,6393cea3487ec3aa7c73b6fa,6393bc7851c6f243862e40e3,Fri Dec 09 2022 18:11:24 GMT-0600 (Central Standard Time),"",0,0,1455391
4,SRGKT7J6W,Disk2_SRGKT7J6W_view1.png,9191,4,12,6,1,CbkLXIzveRhHOIEmbQkMsuHVDoO2,628e55a8f9ad59c287bc542d,6393cea3487ec3aa7c73b6fa,6393bc7851c6f243862e40e3,Fri Dec 09 2022 18:11:24 GMT-0600 (Central Standard Time),"",0,0,1455391
5,SCRT7R5A3,Disk2_SCRT7R5A3_view1.png,10639,4,13,9,1,CbkLXIzveRhHOIEmbQkMsuHVDoO2,628e55a8f9ad59c287bc542d,6393cea3487ec3aa7c73b6fa,6393bc7851c6f243862e40e3,Fri Dec 09 2022 18:11:24 GMT-0600 (Central Standard Time),"",0,0,1455391
50,XDSIMROG3,Cylinder2_XDSIMROG3_view1.png,43014,2,14,47,1,CbkLXIzveRhHOIEmbQkMsuHVDoO2,628e55a8f9ad59c287bc542d,6393cea3487ec3aa7c73b6fa,6393bc7851c6f243862e40e3,Fri Dec 09 2022 18:11:24 GMT-0600 (Central Standard Time),"",0,0,1455391
17,RUXPXZYBF,Disk2_RUXPXZYBF_view4.png,35031,4,15,21,4,CbkLXIzveRhHOIEmbQkMsuHVDoO2,628e55a8f9ad59c287bc542d,6393cea3487ec3aa7c73b6fa,6393bc7851c6f243862e40e3,Fri Dec 09 2022 18:11:24 GMT-0600 (Central Standard Time),"",0,0,1455391
44,V535C6Z59,Cylinder2_V535C6Z59_view2.png,26647,2,16,50,2,CbkLXIzveRhHOIEmbQkMsuHVDoO2,628e55a8f9ad59c287bc542d,6393cea3487ec3aa7c73b6fa,6393bc7851c6f243862e40e3,Fri Dec 09 2022 18:11:24 GMT-0600 (Central Standard Time),"",0,0,1455391
770,KPET24YYP,Sphere2_KPET24YYP_view3.png,161584,6,17,734,3,CbkLXIzveRhHOIEmbQkMsuHVDoO2,628e55a8f9ad59c287bc542d,6393cea3487ec3aa7c73b6fa,6393bc7851c6f243862e40e3,Fri Dec 09 2022 18:11:24 GMT-0600 (Central Standard Time),"",0,0,1455391
525,VL08RVUR5,Sphere2_VL08RVUR5_view4.png,41535,6,18,369,4,CbkLXIzveRhHOIEmbQkMsuHVDoO2,628e55a8f9ad59c287bc542d,6393cea3487ec3aa7c73b6fa,6393bc7851c6f243862e40e3,Fri Dec 09 2022 18:11:24 GMT-0600 (Central Standard Time),"",0,0,1455391
900,6YS8K4A4Q,Sphere1_6YS8K4A4Q_view4.png,24215,5,19,619,4,CbkLXIzveRhHOIEmbQkMsuHVDoO2,628e55a8f9ad59c287bc542d,6393cea3487ec3aa7c73b6fa,6393bc7851c6f243862e40e3,Fri Dec 09 2022 18:11:24 GMT-0600 (Central Standard Time),"",0,0,1455391
42,SHCV0RIDU,Cylinder2_SHCV0RIDU_view1.png,26751,2,20,41,1,CbkLXIzveRhHOIEmbQkMsuHVDoO2,628e55a8f9ad59c287bc542d,6393cea3487ec3aa7c73b6fa,6393bc7851c6f243862e40e3,Fri Dec 09 2022 18:11:24 GMT-0600 (Central Standard Time),"",0,0,1455391
10,3NA1Z3VH8,Disk2_3NA1Z3VH8_view1.png,15031,4,21,20,1,CbkLXIzveRhHOIEmbQkMsuHVDoO2,628e55a8f9ad59c287bc542d,6393cea3487ec3aa7c73b6fa,6393bc7851c6f243862e40e3,Fri Dec 09 2022 18:11:24 GMT-0600 (Central Standard Time),"",0,0,1455391
50,OHDA3OCBC,Cylinder2_OHDA3OCBC_view5.png,32647,2,22,49,5,CbkLXIzveRhHOIEmbQkMsuHVDoO2,628e55a8f9ad59c287bc542d,6393cea3487ec3aa7c73b6fa,6393bc7851c6f243862e40e3,Fri Dec 09 2022 18:11:24 GMT-0600 (Central Standard Time),"",0,0,1455391
600,J19F0VAV8,Sphere1_J19F0VAV8_view4.png,20455,5,23,324,4,CbkLXIzveRhHOIEmbQkMsuHVDoO2,628e55a8f9ad59c287bc542d,6393cea3487ec3aa7c73b6fa,6393bc7851c6f243862e40e3,Fri Dec 09 2022 18:11:24 GMT-0600 (Central Standard Time),"",0,0,1455391
250,VPVRI6MWB,Sphere2_VPVRI6MWB_view1.png,46567,6,24,872,1,CbkLXIzveRhHOIEmbQkMsuHVDoO2,628e55a8f9ad59c287bc542d,6393cea3487ec3aa7c73b6fa,6393bc7851c6f243862e40e3,Fri Dec 09 2022 18:11:24 GMT-0600 (Central Standard Time),"",0,0,1455391
108,TVACAARY6,Cylinder1_TVACAARY6_view3.png,46558,1,25,138,3,CbkLXIzveRhHOIEmbQkMsuHVDoO2,628e55a8f9ad59c287bc542d,6393cea3487ec3aa7c73b6fa,6393bc7851c6f243862e40e3,Fri Dec 09 2022 18:11:24 GMT-0600 (Central Standard Time),"",0,0,1455391
525,YQ7UHJ3SX,Sphere1_YQ7UHJ3SX_view4.png,138232,5,26,943,4,CbkLXIzveRhHOIEmbQkMsuHVDoO2,628e55a8f9ad59c287bc542d,6393cea3487ec3aa7c73b6fa,6393bc7851c6f243862e40e3,Fri Dec 09 2022 18:11:24 GMT-0600 (Central Standard Time),"",0,0,1455391
12,3SVUN1HJL,Disk1_3SVUN1HJL_view1.png,21264,3,27,37,1,CbkLXIzveRhHOIEmbQkMsuHVDoO2,628e55a8f9ad59c287bc542d,6393cea3487ec3aa7c73b6fa,6393bc7851c6f243862e40e3,Fri Dec 09 2022 18:11:24 GMT-0600 (Central Standard Time),"",0,0,1455391
13,INCY9WRU3,Disk2_INCY9WRU3_view2.png,14127,4,28,13,2,CbkLXIzveRhHOIEmbQkMsuHVDoO2,628e55a8f9ad59c287bc542d,6393cea3487ec3aa7c73b6fa,6393bc7851c6f243862e40e3,Fri Dec 09 2022 18:11:24 GMT-0600 (Central Standard Time),"",0,0,1455391
480,3N0VYJFQD,Sphere1_3N0VYJFQD_view5.png,42509,5,29,407,5,CbkLXIzveRhHOIEmbQkMsuHVDoO2,628e55a8f9ad59c287bc542d,6393cea3487ec3aa7c73b6fa,6393bc7851c6f243862e40e3,Fri Dec 09 2022 18:11:24 GMT-0600 (Central Standard Time),"",0,0,1455391
8,5G8BZBGDD,Disk1_5G8BZBGDD_view1.png,21408,3,30,32,1,CbkLXIzveRhHOIEmbQkMsuHVDoO2,628e55a8f9ad59c287bc542d,6393cea3487ec3aa7c73b6fa,6393bc7851c6f243862e40e3,Fri Dec 09 2022 18:11:24 GMT-0600 (Central Standard Time),"",0,0,1455391
35,QJ7A2VLZJ,Sphere2_QJ7A2VLZJ_view1.png,11664,6,1,634,1,DJrYxnOIGrbtbFCaWkNvUSaeW0S2,61bb388840db417c1a138c8f,6397b385c03fde38773c4156,6393bc7851c6f243862e40e3,Mon Dec 12 2022 17:08:59 GMT-0600 (CST),"",2,0,557526
25,YWBCJPVX9,Cylinder2_YWBCJPVX9_view5.png,7653,2,2,38,5,DJrYxnOIGrbtbFCaWkNvUSaeW0S2,61bb388840db417c1a138c8f,6397b385c03fde38773c4156,6393bc7851c6f243862e40e3,Mon Dec 12 2022 17:08:59 GMT-0600 (CST),"",2,0,557526
40,5G8BZBGDD,Disk1_5G8BZBGDD_view2.png,6470,3,3,32,2,DJrYxnOIGrbtbFCaWkNvUSaeW0S2,61bb388840db417c1a138c8f,6397b385c03fde38773c4156,6393bc7851c6f243862e40e3,Mon Dec 12 2022 17:08:59 GMT-0600 (CST),"",2,0,557526
25,INCY9WRU3,Disk2_INCY9WRU3_view5.png,10081,4,4,13,5,DJrYxnOIGrbtbFCaWkNvUSaeW0S2,61bb388840db417c1a138c8f,6397b385c03fde38773c4156,6393bc7851c6f243862e40e3,Mon Dec 12 2022 17:08:59 GMT-0600 (CST),"",2,0,557526
45,QQJOJR0XS,Cylinder1_QQJOJR0XS_view2.png,4134,1,5,74,2,DJrYxnOIGrbtbFCaWkNvUSaeW0S2,61bb388840db417c1a138c8f,6397b385c03fde38773c4156,6393bc7851c6f243862e40e3,Mon Dec 12 2022 17:08:59 GMT-0600 (CST),"",2,0,557526
60,BYJKQ0GU9,Cylinder1_BYJKQ0GU9_view5.png,53480,1,6,151,5,DJrYxnOIGrbtbFCaWkNvUSaeW0S2,61bb388840db417c1a138c8f,6397b385c03fde38773c4156,6393bc7851c6f243862e40e3,Mon Dec 12 2022 17:08:59 GMT-0600 (CST),"",2,0,557526
70,QNFD860RN,Sphere1_QNFD860RN_view4.png,12828,5,7,654,4,DJrYxnOIGrbtbFCaWkNvUSaeW0S2,61bb388840db417c1a138c8f,6397b385c03fde38773c4156,6393bc7851c6f243862e40e3,Mon Dec 12 2022 17:08:59 GMT-0600 (CST),"",2,0,557526
60,2JEAZ69Q3,Disk2_2JEAZ69Q3_view2.png,22076,4,8,26,2,DJrYxnOIGrbtbFCaWkNvUSaeW0S2,61bb388840db417c1a138c8f,6397b385c03fde38773c4156,6393bc7851c6f243862e40e3,Mon Dec 12 2022 17:08:59 GMT-0600 (CST),"",2,0,557526
65,TVACAARY6,Cylinder1_TVACAARY6_view4.png,31012,1,9,138,4,DJrYxnOIGrbtbFCaWkNvUSaeW0S2,61bb388840db417c1a138c8f,6397b385c03fde38773c4156,6393bc7851c6f243862e40e3,Mon Dec 12 2022 17:08:59 GMT-0600 (CST),"",2,0,557526
20,I4VF4FG6X,Cylinder2_I4VF4FG6X_view2.png,18527,2,10,29,2,DJrYxnOIGrbtbFCaWkNvUSaeW0S2,61bb388840db417c1a138c8f,6397b385c03fde38773c4156,6393bc7851c6f243862e40e3,Mon Dec 12 2022 17:08:59 GMT-0600 (CST),"",2,0,557526
35,3NA1Z3VH8,Disk2_3NA1Z3VH8_view1.png,24111,4,11,20,1,DJrYxnOIGrbtbFCaWkNvUSaeW0S2,61bb388840db417c1a138c8f,6397b385c03fde38773c4156,6393bc7851c6f243862e40e3,Mon Dec 12 2022 17:08:59 GMT-0600 (CST),"",2,0,557526
75,YQ7UHJ3SX,Sphere1_YQ7UHJ3SX_view1.png,11460,5,12,943,1,DJrYxnOIGrbtbFCaWkNvUSaeW0S2,61bb388840db417c1a138c8f,6397b385c03fde38773c4156,6393bc7851c6f243862e40e3,Mon Dec 12 2022 17:08:59 GMT-0600 (CST),"",2,0,557526
15,L7HJAI5QH,Disk2_L7HJAI5QH_view1.png,15251,4,13,27,1,DJrYxnOIGrbtbFCaWkNvUSaeW0S2,61bb388840db417c1a138c8f,6397b385c03fde38773c4156,6393bc7851c6f243862e40e3,Mon Dec 12 2022 17:08:59 GMT-0600 (CST),"",2,0,557526
40,XC7T5XT3M,Cylinder1_XC7T5XT3M_view1.png,13783,1,14,136,1,DJrYxnOIGrbtbFCaWkNvUSaeW0S2,61bb388840db417c1a138c8f,6397b385c03fde38773c4156,6393bc7851c6f243862e40e3,Mon Dec 12 2022 17:08:59 GMT-0600 (CST),"",2,0,557526
45,KZPZYX6I2,Disk2_KZPZYX6I2_view4.png,19146,4,15,22,4,DJrYxnOIGrbtbFCaWkNvUSaeW0S2,61bb388840db417c1a138c8f,6397b385c03fde38773c4156,6393bc7851c6f243862e40e3,Mon Dec 12 2022 17:08:59 GMT-0600 (CST),"",2,0,557526
65,ZOSELZLL0,Sphere1_ZOSELZLL0_view1.png,18442,5,16,996,1,DJrYxnOIGrbtbFCaWkNvUSaeW0S2,61bb388840db417c1a138c8f,6397b385c03fde38773c4156,6393bc7851c6f243862e40e3,Mon Dec 12 2022 17:08:59 GMT-0600 (CST),"",2,0,557526
55,KGONB1PPB,Sphere2_KGONB1PPB_view5.png,19480,6,17,527,5,DJrYxnOIGrbtbFCaWkNvUSaeW0S2,61bb388840db417c1a138c8f,6397b385c03fde38773c4156,6393bc7851c6f243862e40e3,Mon Dec 12 2022 17:08:59 GMT-0600 (CST),"",2,0,557526
50,VPVRI6MWB,Sphere2_VPVRI6MWB_view4.png,26237,6,18,872,4,DJrYxnOIGrbtbFCaWkNvUSaeW0S2,61bb388840db417c1a138c8f,6397b385c03fde38773c4156,6393bc7851c6f243862e40e3,Mon Dec 12 2022 17:08:59 GMT-0600 (CST),"",2,0,557526
45,3N0VYJFQD,Sphere1_3N0VYJFQD_view3.png,11446,5,19,407,3,DJrYxnOIGrbtbFCaWkNvUSaeW0S2,61bb388840db417c1a138c8f,6397b385c03fde38773c4156,6393bc7851c6f243862e40e3,Mon Dec 12 2022 17:08:59 GMT-0600 (CST),"",2,0,557526
30,IHQ35HXKS,Cylinder2_IHQ35HXKS_view5.png,47505,2,20,48,5,DJrYxnOIGrbtbFCaWkNvUSaeW0S2,61bb388840db417c1a138c8f,6397b385c03fde38773c4156,6393bc7851c6f243862e40e3,Mon Dec 12 2022 17:08:59 GMT-0600 (CST),"",2,0,557526
40,0JRIF5LHV,Sphere2_0JRIF5LHV_view5.png,22529,6,21,554,5,DJrYxnOIGrbtbFCaWkNvUSaeW0S2,61bb388840db417c1a138c8f,6397b385c03fde38773c4156,6393bc7851c6f243862e40e3,Mon Dec 12 2022 17:08:59 GMT-0600 (CST),"",2,0,557526
45,80NMDSOCB,Sphere2_80NMDSOCB_view3.png,47473,6,22,862,3,DJrYxnOIGrbtbFCaWkNvUSaeW0S2,61bb388840db417c1a138c8f,6397b385c03fde38773c4156,6393bc7851c6f243862e40e3,Mon Dec 12 2022 17:08:59 GMT-0600 (CST),"",2,0,557526
35,XDSIMROG3,Cylinder2_XDSIMROG3_view3.png,8185,2,23,47,3,DJrYxnOIGrbtbFCaWkNvUSaeW0S2,61bb388840db417c1a138c8f,6397b385c03fde38773c4156,6393bc7851c6f243862e40e3,Mon Dec 12 2022 17:08:59 GMT-0600 (CST),"",2,0,557526
30,SHCV0RIDU,Cylinder2_SHCV0RIDU_view4.png,13063,2,24,41,4,DJrYxnOIGrbtbFCaWkNvUSaeW0S2,61bb388840db417c1a138c8f,6397b385c03fde38773c4156,6393bc7851c6f243862e40e3,Mon Dec 12 2022 17:08:59 GMT-0600 (CST),"",2,0,557526
30,WNLI89O27,Disk2_WNLI89O27_view1.png,15601,4,25,16,1,DJrYxnOIGrbtbFCaWkNvUSaeW0S2,61bb388840db417c1a138c8f,6397b385c03fde38773c4156,6393bc7851c6f243862e40e3,Mon Dec 12 2022 17:08:59 GMT-0600 (CST),"",2,0,557526
20,VPKDNRNXX,Disk2_VPKDNRNXX_view3.png,13589,4,26,18,3,DJrYxnOIGrbtbFCaWkNvUSaeW0S2,61bb388840db417c1a138c8f,6397b385c03fde38773c4156,6393bc7851c6f243862e40e3,Mon Dec 12 2022 17:08:59 GMT-0600 (CST),"",2,0,557526
50,9IFGKGYWD,Sphere1_9IFGKGYWD_view5.png,14113,5,27,634,5,DJrYxnOIGrbtbFCaWkNvUSaeW0S2,61bb388840db417c1a138c8f,6397b385c03fde38773c4156,6393bc7851c6f243862e40e3,Mon Dec 12 2022 17:08:59 GMT-0600 (CST),"",2,0,557526
15,SRGKT7J6W,Disk2_SRGKT7J6W_view4.png,13008,4,28,6,4,DJrYxnOIGrbtbFCaWkNvUSaeW0S2,61bb388840db417c1a138c8f,6397b385c03fde38773c4156,6393bc7851c6f243862e40e3,Mon Dec 12 2022 17:08:59 GMT-0600 (CST),"",2,0,557526
25,MGZBUG5C3,Disk1_MGZBUG5C3_view1.png,13329,3,29,23,1,DJrYxnOIGrbtbFCaWkNvUSaeW0S2,61bb388840db417c1a138c8f,6397b385c03fde38773c4156,6393bc7851c6f243862e40e3,Mon Dec 12 2022 17:08:59 GMT-0600 (CST),"",2,0,557526
50,RPXD8F8A1,Cylinder1_RPXD8F8A1_view1.png,11768,1,30,168,1,DJrYxnOIGrbtbFCaWkNvUSaeW0S2,61bb388840db417c1a138c8f,6397b385c03fde38773c4156,6393bc7851c6f243862e40e3,Mon Dec 12 2022 17:08:59 GMT-0600 (CST),"",2,0,557526
550,YQ7UHJ3SX,Sphere1_YQ7UHJ3SX_view2.png,338496,5,1,943,2,DUBknpHHpja3Fw9pe28sFUm1ZJs2,628fcdd94ad6099e34e72647,639515bfa18e5874fb8beef2,6393bc7851c6f243862e40e3,Sat Dec 10 2022 15:27:06 GMT-0800 (Pacific Standard Time),"",1,1,1701461
150,J19F0VAV8,Sphere1_J19F0VAV8_view4.png,13361,5,2,324,4,DUBknpHHpja3Fw9pe28sFUm1ZJs2,628fcdd94ad6099e34e72647,639515bfa18e5874fb8beef2,6393bc7851c6f243862e40e3,Sat Dec 10 2022 15:27:06 GMT-0800 (Pacific Standard Time),"",1,1,1701461
200,82DFOODCS,Sphere2_82DFOODCS_view1.png,9546,6,3,295,1,DUBknpHHpja3Fw9pe28sFUm1ZJs2,628fcdd94ad6099e34e72647,639515bfa18e5874fb8beef2,6393bc7851c6f243862e40e3,Sat Dec 10 2022 15:27:06 GMT-0800 (Pacific Standard Time),"",1,1,1701461
300,KGONB1PPB,Sphere2_KGONB1PPB_view1.png,7674,6,4,527,1,DUBknpHHpja3Fw9pe28sFUm1ZJs2,628fcdd94ad6099e34e72647,639515bfa18e5874fb8beef2,6393bc7851c6f243862e40e3,Sat Dec 10 2022 15:27:06 GMT-0800 (Pacific Standard Time),"",1,1,1701461
400,6YS8K4A4Q,Sphere1_6YS8K4A4Q_view4.png,12304,5,5,619,4,DUBknpHHpja3Fw9pe28sFUm1ZJs2,628fcdd94ad6099e34e72647,639515bfa18e5874fb8beef2,6393bc7851c6f243862e40e3,Sat Dec 10 2022 15:27:06 GMT-0800 (Pacific Standard Time),"",1,1,1701461
33,5G8BZBGDD,Disk1_5G8BZBGDD_view2.png,34563,3,6,32,2,DUBknpHHpja3Fw9pe28sFUm1ZJs2,628fcdd94ad6099e34e72647,639515bfa18e5874fb8beef2,6393bc7851c6f243862e40e3,Sat Dec 10 2022 15:27:06 GMT-0800 (Pacific Standard Time),"",1,1,1701461
120,M5NR4RF40,Cylinder1_M5NR4RF40_view5.png,17639,1,7,116,5,DUBknpHHpja3Fw9pe28sFUm1ZJs2,628fcdd94ad6099e34e72647,639515bfa18e5874fb8beef2,6393bc7851c6f243862e40e3,Sat Dec 10 2022 15:27:06 GMT-0800 (Pacific Standard Time),"",1,1,1701461
25,2JEAZ69Q3,Disk2_2JEAZ69Q3_view2.png,27793,4,8,26,2,DUBknpHHpja3Fw9pe28sFUm1ZJs2,628fcdd94ad6099e34e72647,639515bfa18e5874fb8beef2,6393bc7851c6f243862e40e3,Sat Dec 10 2022 15:27:06 GMT-0800 (Pacific Standard Time),"",1,1,1701461
600,KPET24YYP,Sphere2_KPET24YYP_view1.png,11598,6,9,734,1,DUBknpHHpja3Fw9pe28sFUm1ZJs2,628fcdd94ad6099e34e72647,639515bfa18e5874fb8beef2,6393bc7851c6f243862e40e3,Sat Dec 10 2022 15:27:06 GMT-0800 (Pacific Standard Time),"",1,1,1701461
100,26U5PULZX,Cylinder1_26U5PULZX_view5.png,8231,1,10,101,5,DUBknpHHpja3Fw9pe28sFUm1ZJs2,628fcdd94ad6099e34e72647,639515bfa18e5874fb8beef2,6393bc7851c6f243862e40e3,Sat Dec 10 2022 15:27:06 GMT-0800 (Pacific Standard Time),"",1,1,1701461
350,9IFGKGYWD,Sphere1_9IFGKGYWD_view4.png,6129,5,11,634,4,DUBknpHHpja3Fw9pe28sFUm1ZJs2,628fcdd94ad6099e34e72647,639515bfa18e5874fb8beef2,6393bc7851c6f243862e40e3,Sat Dec 10 2022 15:27:06 GMT-0800 (Pacific Standard Time),"",1,1,1701461
300,3N0VYJFQD,Sphere1_3N0VYJFQD_view5.png,29540,5,12,407,5,DUBknpHHpja3Fw9pe28sFUm1ZJs2,628fcdd94ad6099e34e72647,639515bfa18e5874fb8beef2,6393bc7851c6f243862e40e3,Sat Dec 10 2022 15:27:06 GMT-0800 (Pacific Standard Time),"",1,1,1701461
50,SHCV0RIDU,Cylinder2_SHCV0RIDU_view4.png,32559,2,13,41,4,DUBknpHHpja3Fw9pe28sFUm1ZJs2,628fcdd94ad6099e34e72647,639515bfa18e5874fb8beef2,6393bc7851c6f243862e40e3,Sat Dec 10 2022 15:27:06 GMT-0800 (Pacific Standard Time),"",1,1,1701461
24,RUXPXZYBF,Disk2_RUXPXZYBF_view4.png,24844,4,14,21,4,DUBknpHHpja3Fw9pe28sFUm1ZJs2,628fcdd94ad6099e34e72647,639515bfa18e5874fb8beef2,6393bc7851c6f243862e40e3,Sat Dec 10 2022 15:27:06 GMT-0800 (Pacific Standard Time),"",1,1,1701461
75,QQJOJR0XS,Cylinder1_QQJOJR0XS_view3.png,15704,1,15,74,3,DUBknpHHpja3Fw9pe28sFUm1ZJs2,628fcdd94ad6099e34e72647,639515bfa18e5874fb8beef2,6393bc7851c6f243862e40e3,Sat Dec 10 2022 15:27:06 GMT-0800 (Pacific Standard Time),"",1,1,1701461
7,SRGKT7J6W,Disk2_SRGKT7J6W_view5.png,17347,4,16,6,5,DUBknpHHpja3Fw9pe28sFUm1ZJs2,628fcdd94ad6099e34e72647,639515bfa18e5874fb8beef2,6393bc7851c6f243862e40e3,Sat Dec 10 2022 15:27:06 GMT-0800 (Pacific Standard Time),"",1,1,1701461
9,INCY9WRU3,Disk2_INCY9WRU3_view3.png,14118,4,17,13,3,DUBknpHHpja3Fw9pe28sFUm1ZJs2,628fcdd94ad6099e34e72647,639515bfa18e5874fb8beef2,6393bc7851c6f243862e40e3,Sat Dec 10 2022 15:27:06 GMT-0800 (Pacific Standard Time),"",1,1,1701461
400,ZOSELZLL0,Sphere1_ZOSELZLL0_view3.png,65031,5,18,996,3,DUBknpHHpja3Fw9pe28sFUm1ZJs2,628fcdd94ad6099e34e72647,639515bfa18e5874fb8beef2,6393bc7851c6f243862e40e3,Sat Dec 10 2022 15:27:06 GMT-0800 (Pacific Standard Time),"",1,1,1701461
55,IHQ35HXKS,Cylinder2_IHQ35HXKS_view4.png,757984,2,19,48,4,DUBknpHHpja3Fw9pe28sFUm1ZJs2,628fcdd94ad6099e34e72647,639515bfa18e5874fb8beef2,6393bc7851c6f243862e40e3,Sat Dec 10 2022 15:27:06 GMT-0800 (Pacific Standard Time),"",1,1,1701461
40,V1KH4ZGWT,Cylinder2_V1KH4ZGWT_view3.png,26696,2,20,31,3,DUBknpHHpja3Fw9pe28sFUm1ZJs2,628fcdd94ad6099e34e72647,639515bfa18e5874fb8beef2,6393bc7851c6f243862e40e3,Sat Dec 10 2022 15:27:06 GMT-0800 (Pacific Standard Time),"",1,1,1701461
25,KZPZYX6I2,Disk2_KZPZYX6I2_view2.png,24205,4,21,22,2,DUBknpHHpja3Fw9pe28sFUm1ZJs2,628fcdd94ad6099e34e72647,639515bfa18e5874fb8beef2,6393bc7851c6f243862e40e3,Sat Dec 10 2022 15:27:06 GMT-0800 (Pacific Standard Time),"",1,1,1701461
25,3NA1Z3VH8,Disk2_3NA1Z3VH8_view5.png,22443,4,22,20,5,DUBknpHHpja3Fw9pe28sFUm1ZJs2,628fcdd94ad6099e34e72647,639515bfa18e5874fb8beef2,6393bc7851c6f243862e40e3,Sat Dec 10 2022 15:27:06 GMT-0800 (Pacific Standard Time),"",1,1,1701461
50,GIZUFRSOC,Cylinder1_GIZUFRSOC_view4.png,22233,1,23,57,4,DUBknpHHpja3Fw9pe28sFUm1ZJs2,628fcdd94ad6099e34e72647,639515bfa18e5874fb8beef2,6393bc7851c6f243862e40e3,Sat Dec 10 2022 15:27:06 GMT-0800 (Pacific Standard Time),"",1,1,1701461
25,L7HJAI5QH,Disk2_L7HJAI5QH_view5.png,32176,4,24,27,5,DUBknpHHpja3Fw9pe28sFUm1ZJs2,628fcdd94ad6099e34e72647,639515bfa18e5874fb8beef2,6393bc7851c6f243862e40e3,Sat Dec 10 2022 15:27:06 GMT-0800 (Pacific Standard Time),"",1,1,1701461
15,2GCZP1BYJ,Disk1_2GCZP1BYJ_view4.png,19073,3,25,11,4,DUBknpHHpja3Fw9pe28sFUm1ZJs2,628fcdd94ad6099e34e72647,639515bfa18e5874fb8beef2,6393bc7851c6f243862e40e3,Sat Dec 10 2022 15:27:06 GMT-0800 (Pacific Standard Time),"",1,1,1701461
30,MGZBUG5C3,Disk1_MGZBUG5C3_view3.png,17759,3,26,23,3,DUBknpHHpja3Fw9pe28sFUm1ZJs2,628fcdd94ad6099e34e72647,639515bfa18e5874fb8beef2,6393bc7851c6f243862e40e3,Sat Dec 10 2022 15:27:06 GMT-0800 (Pacific Standard Time),"",1,1,1701461
120,RPXD8F8A1,Cylinder1_RPXD8F8A1_view5.png,18095,1,27,168,5,DUBknpHHpja3Fw9pe28sFUm1ZJs2,628fcdd94ad6099e34e72647,639515bfa18e5874fb8beef2,6393bc7851c6f243862e40e3,Sat Dec 10 2022 15:27:06 GMT-0800 (Pacific Standard Time),"",1,1,1701461
8,LJEPH36J5,Cylinder2_LJEPH36J5_view3.png,22969,2,28,9,3,DUBknpHHpja3Fw9pe28sFUm1ZJs2,628fcdd94ad6099e34e72647,639515bfa18e5874fb8beef2,6393bc7851c6f243862e40e3,Sat Dec 10 2022 15:27:06 GMT-0800 (Pacific Standard Time),"",1,1,1701461
65,XDSIMROG3,Cylinder2_XDSIMROG3_view1.png,38261,2,29,47,1,DUBknpHHpja3Fw9pe28sFUm1ZJs2,628fcdd94ad6099e34e72647,639515bfa18e5874fb8beef2,6393bc7851c6f243862e40e3,Sat Dec 10 2022 15:27:06 GMT-0800 (Pacific Standard Time),"",1,1,1701461
40,3SVUN1HJL,Disk1_3SVUN1HJL_view3.png,13000,3,30,37,3,DUBknpHHpja3Fw9pe28sFUm1ZJs2,628fcdd94ad6099e34e72647,639515bfa18e5874fb8beef2,6393bc7851c6f243862e40e3,Sat Dec 10 2022 15:27:06 GMT-0800 (Pacific Standard Time),"",1,1,1701461
430,QFJ15C239,Sphere1_QFJ15C239_view4.png,10148,5,1,987,4,DV4HrWWGfUYVJld5qZRmr1XQL6c2,60d731567049e5132e3cc4d4,6393c027eb2b97378995da8d,6393bc7851c6f243862e40e3,Fri Dec 09 2022 18:09:37 GMT-0500 (Eastern Standard Time),"",1,0,319092
30,L7HJAI5QH,Disk2_L7HJAI5QH_view2.png,19959,4,2,27,2,DV4HrWWGfUYVJld5qZRmr1XQL6c2,60d731567049e5132e3cc4d4,6393c027eb2b97378995da8d,6393bc7851c6f243862e40e3,Fri Dec 09 2022 18:09:37 GMT-0500 (Eastern Standard Time),"",1,0,319092
43,V535C6Z59,Cylinder2_V535C6Z59_view4.png,8997,2,3,50,4,DV4HrWWGfUYVJld5qZRmr1XQL6c2,60d731567049e5132e3cc4d4,6393c027eb2b97378995da8d,6393bc7851c6f243862e40e3,Fri Dec 09 2022 18:09:37 GMT-0500 (Eastern Standard Time),"",1,0,319092
17,VPKDNRNXX,Disk2_VPKDNRNXX_view5.png,11543,4,4,18,5,DV4HrWWGfUYVJld5qZRmr1XQL6c2,60d731567049e5132e3cc4d4,6393c027eb2b97378995da8d,6393bc7851c6f243862e40e3,Fri Dec 09 2022 18:09:37 GMT-0500 (Eastern Standard Time),"",1,0,319092
560,80NMDSOCB,Sphere2_80NMDSOCB_view3.png,8217,6,5,862,3,DV4HrWWGfUYVJld5qZRmr1XQL6c2,60d731567049e5132e3cc4d4,6393c027eb2b97378995da8d,6393bc7851c6f243862e40e3,Fri Dec 09 2022 18:09:37 GMT-0500 (Eastern Standard Time),"",1,0,319092
17,RUXPXZYBF,Disk2_RUXPXZYBF_view4.png,11749,4,6,21,4,DV4HrWWGfUYVJld5qZRmr1XQL6c2,60d731567049e5132e3cc4d4,6393c027eb2b97378995da8d,6393bc7851c6f243862e40e3,Fri Dec 09 2022 18:09:37 GMT-0500 (Eastern Standard Time),"",1,0,319092
52,QQJOJR0XS,Cylinder1_QQJOJR0XS_view2.png,7766,1,7,74,2,DV4HrWWGfUYVJld5qZRmr1XQL6c2,60d731567049e5132e3cc4d4,6393c027eb2b97378995da8d,6393bc7851c6f243862e40e3,Fri Dec 09 2022 18:09:37 GMT-0500 (Eastern Standard Time),"",1,0,319092
20,2JEAZ69Q3,Disk2_2JEAZ69Q3_view4.png,6958,4,8,26,4,DV4HrWWGfUYVJld5qZRmr1XQL6c2,60d731567049e5132e3cc4d4,6393c027eb2b97378995da8d,6393bc7851c6f243862e40e3,Fri Dec 09 2022 18:09:37 GMT-0500 (Eastern Standard Time),"",1,0,319092
30,V1KH4ZGWT,Cylinder2_V1KH4ZGWT_view4.png,8091,2,9,31,4,DV4HrWWGfUYVJld5qZRmr1XQL6c2,60d731567049e5132e3cc4d4,6393c027eb2b97378995da8d,6393bc7851c6f243862e40e3,Fri Dec 09 2022 18:09:37 GMT-0500 (Eastern Standard Time),"",1,0,319092
440,ZOSELZLL0,Sphere1_ZOSELZLL0_view2.png,18692,5,10,996,2,DV4HrWWGfUYVJld5qZRmr1XQL6c2,60d731567049e5132e3cc4d4,6393c027eb2b97378995da8d,6393bc7851c6f243862e40e3,Fri Dec 09 2022 18:09:37 GMT-0500 (Eastern Standard Time),"",1,0,319092
18,WNLI89O27,Disk2_WNLI89O27_view4.png,13641,4,11,16,4,DV4HrWWGfUYVJld5qZRmr1XQL6c2,60d731567049e5132e3cc4d4,6393c027eb2b97378995da8d,6393bc7851c6f243862e40e3,Fri Dec 09 2022 18:09:37 GMT-0500 (Eastern Standard Time),"",1,0,319092
19,SCRT7R5A3,Disk2_SCRT7R5A3_view1.png,7980,4,12,9,1,DV4HrWWGfUYVJld5qZRmr1XQL6c2,60d731567049e5132e3cc4d4,6393c027eb2b97378995da8d,6393bc7851c6f243862e40e3,Fri Dec 09 2022 18:09:37 GMT-0500 (Eastern Standard Time),"",1,0,319092
340,YQ7UHJ3SX,Sphere1_YQ7UHJ3SX_view3.png,5826,5,13,943,3,DV4HrWWGfUYVJld5qZRmr1XQL6c2,60d731567049e5132e3cc4d4,6393c027eb2b97378995da8d,6393bc7851c6f243862e40e3,Fri Dec 09 2022 18:09:37 GMT-0500 (Eastern Standard Time),"",1,0,319092
21,KZPZYX6I2,Disk2_KZPZYX6I2_view1.png,17704,4,14,22,1,DV4HrWWGfUYVJld5qZRmr1XQL6c2,60d731567049e5132e3cc4d4,6393c027eb2b97378995da8d,6393bc7851c6f243862e40e3,Fri Dec 09 2022 18:09:37 GMT-0500 (Eastern Standard Time),"",1,0,319092
450,9IFGKGYWD,Sphere1_9IFGKGYWD_view3.png,8998,5,15,634,3,DV4HrWWGfUYVJld5qZRmr1XQL6c2,60d731567049e5132e3cc4d4,6393c027eb2b97378995da8d,6393bc7851c6f243862e40e3,Fri Dec 09 2022 18:09:37 GMT-0500 (Eastern Standard Time),"",1,0,319092
7,SRGKT7J6W,Disk2_SRGKT7J6W_view5.png,8572,4,16,6,5,DV4HrWWGfUYVJld5qZRmr1XQL6c2,60d731567049e5132e3cc4d4,6393c027eb2b97378995da8d,6393bc7851c6f243862e40e3,Fri Dec 09 2022 18:09:37 GMT-0500 (Eastern Standard Time),"",1,0,319092
48,IHQ35HXKS,Cylinder2_IHQ35HXKS_view5.png,8814,2,17,48,5,DV4HrWWGfUYVJld5qZRmr1XQL6c2,60d731567049e5132e3cc4d4,6393c027eb2b97378995da8d,6393bc7851c6f243862e40e3,Fri Dec 09 2022 18:09:37 GMT-0500 (Eastern Standard Time),"",1,0,319092
20,3NA1Z3VH8,Disk2_3NA1Z3VH8_view1.png,7165,4,18,20,1,DV4HrWWGfUYVJld5qZRmr1XQL6c2,60d731567049e5132e3cc4d4,6393c027eb2b97378995da8d,6393bc7851c6f243862e40e3,Fri Dec 09 2022 18:09:37 GMT-0500 (Eastern Standard Time),"",1,0,319092
90,RPXD8F8A1,Cylinder1_RPXD8F8A1_view3.png,9915,1,19,168,3,DV4HrWWGfUYVJld5qZRmr1XQL6c2,60d731567049e5132e3cc4d4,6393c027eb2b97378995da8d,6393bc7851c6f243862e40e3,Fri Dec 09 2022 18:09:37 GMT-0500 (Eastern Standard Time),"",1,0,319092
22,4UGDYQ3UM,Disk1_4UGDYQ3UM_view1.png,8354,3,20,15,1,DV4HrWWGfUYVJld5qZRmr1XQL6c2,60d731567049e5132e3cc4d4,6393c027eb2b97378995da8d,6393bc7851c6f243862e40e3,Fri Dec 09 2022 18:09:37 GMT-0500 (Eastern Standard Time),"",1,0,319092
820,VPVRI6MWB,Sphere2_VPVRI6MWB_view1.png,9045,6,21,872,1,DV4HrWWGfUYVJld5qZRmr1XQL6c2,60d731567049e5132e3cc4d4,6393c027eb2b97378995da8d,6393bc7851c6f243862e40e3,Fri Dec 09 2022 18:09:37 GMT-0500 (Eastern Standard Time),"",1,0,319092
9,B81JI2UKR,Disk1_B81JI2UKR_view4.png,7828,3,22,10,4,DV4HrWWGfUYVJld5qZRmr1XQL6c2,60d731567049e5132e3cc4d4,6393c027eb2b97378995da8d,6393bc7851c6f243862e40e3,Fri Dec 09 2022 18:09:37 GMT-0500 (Eastern Standard Time),"",1,0,319092
94,TVACAARY6,Cylinder1_TVACAARY6_view1.png,15412,1,23,138,1,DV4HrWWGfUYVJld5qZRmr1XQL6c2,60d731567049e5132e3cc4d4,6393c027eb2b97378995da8d,6393bc7851c6f243862e40e3,Fri Dec 09 2022 18:09:37 GMT-0500 (Eastern Standard Time),"",1,0,319092
603,QJ7A2VLZJ,Sphere2_QJ7A2VLZJ_view5.png,15794,6,24,634,5,DV4HrWWGfUYVJld5qZRmr1XQL6c2,60d731567049e5132e3cc4d4,6393c027eb2b97378995da8d,6393bc7851c6f243862e40e3,Fri Dec 09 2022 18:09:37 GMT-0500 (Eastern Standard Time),"",1,0,319092
32,YWBCJPVX9,Cylinder2_YWBCJPVX9_view4.png,12110,2,25,38,4,DV4HrWWGfUYVJld5qZRmr1XQL6c2,60d731567049e5132e3cc4d4,6393c027eb2b97378995da8d,6393bc7851c6f243862e40e3,Fri Dec 09 2022 18:09:37 GMT-0500 (Eastern Standard Time),"",1,0,319092
17,T7OXVFZKO,Disk1_T7OXVFZKO_view1.png,10581,3,26,10,1,DV4HrWWGfUYVJld5qZRmr1XQL6c2,60d731567049e5132e3cc4d4,6393c027eb2b97378995da8d,6393bc7851c6f243862e40e3,Fri Dec 09 2022 18:09:37 GMT-0500 (Eastern Standard Time),"",1,0,319092
320,QNFD860RN,Sphere1_QNFD860RN_view5.png,9541,5,27,654,5,DV4HrWWGfUYVJld5qZRmr1XQL6c2,60d731567049e5132e3cc4d4,6393c027eb2b97378995da8d,6393bc7851c6f243862e40e3,Fri Dec 09 2022 18:09:37 GMT-0500 (Eastern Standard Time),"",1,0,319092
15,3SVUN1HJL,Disk1_3SVUN1HJL_view1.png,10944,3,28,37,1,DV4HrWWGfUYVJld5qZRmr1XQL6c2,60d731567049e5132e3cc4d4,6393c027eb2b97378995da8d,6393bc7851c6f243862e40e3,Fri Dec 09 2022 18:09:37 GMT-0500 (Eastern Standard Time),"",1,0,319092
710,KGONB1PPB,Sphere2_KGONB1PPB_view3.png,10166,6,29,527,3,DV4HrWWGfUYVJld5qZRmr1XQL6c2,60d731567049e5132e3cc4d4,6393c027eb2b97378995da8d,6393bc7851c6f243862e40e3,Fri Dec 09 2022 18:09:37 GMT-0500 (Eastern Standard Time),"",1,0,319092
612,3N0VYJFQD,Sphere1_3N0VYJFQD_view1.png,8526,5,30,407,1,DV4HrWWGfUYVJld5qZRmr1XQL6c2,60d731567049e5132e3cc4d4,6393c027eb2b97378995da8d,6393bc7851c6f243862e40e3,Fri Dec 09 2022 18:09:37 GMT-0500 (Eastern Standard Time),"",1,0,319092
11,WNLI89O27,Disk2_WNLI89O27_view1.png,20324,4,1,16,1,DggI9XQNySVFOJjuxgNO9BhT3rz1,60e49c6274c1be146fa85140,63949ddf0973cb8190d339fc,6393bc7851c6f243862e40e3,Sat Dec 10 2022 09:55:34 GMT-0500 (Eastern Standard Time),"I thought this was an interesting experiment. Some of the images were relatively simple to count the number of items, whereas others you had to extrapolate the number of items you can see by how many you think you can't see. Nothing was unclear. ",1,0,839522
32,5G8BZBGDD,Disk1_5G8BZBGDD_view2.png,24273,3,2,32,2,DggI9XQNySVFOJjuxgNO9BhT3rz1,60e49c6274c1be146fa85140,63949ddf0973cb8190d339fc,6393bc7851c6f243862e40e3,Sat Dec 10 2022 09:55:34 GMT-0500 (Eastern Standard Time),"I thought this was an interesting experiment. Some of the images were relatively simple to count the number of items, whereas others you had to extrapolate the number of items you can see by how many you think you can't see. Nothing was unclear. ",1,0,839522
26,I4VF4FG6X,Cylinder2_I4VF4FG6X_view2.png,22877,2,3,29,2,DggI9XQNySVFOJjuxgNO9BhT3rz1,60e49c6274c1be146fa85140,63949ddf0973cb8190d339fc,6393bc7851c6f243862e40e3,Sat Dec 10 2022 09:55:34 GMT-0500 (Eastern Standard Time),"I thought this was an interesting experiment. Some of the images were relatively simple to count the number of items, whereas others you had to extrapolate the number of items you can see by how many you think you can't see. Nothing was unclear. ",1,0,839522
24,XDSIMROG3,Cylinder2_XDSIMROG3_view2.png,12931,2,4,47,2,DggI9XQNySVFOJjuxgNO9BhT3rz1,60e49c6274c1be146fa85140,63949ddf0973cb8190d339fc,6393bc7851c6f243862e40e3,Sat Dec 10 2022 09:55:34 GMT-0500 (Eastern Standard Time),"I thought this was an interesting experiment. Some of the images were relatively simple to count the number of items, whereas others you had to extrapolate the number of items you can see by how many you think you can't see. Nothing was unclear. ",1,0,839522
13,INCY9WRU3,Disk2_INCY9WRU3_view2.png,9596,4,5,13,2,DggI9XQNySVFOJjuxgNO9BhT3rz1,60e49c6274c1be146fa85140,63949ddf0973cb8190d339fc,6393bc7851c6f243862e40e3,Sat Dec 10 2022 09:55:34 GMT-0500 (Eastern Standard Time),"I thought this was an interesting experiment. Some of the images were relatively simple to count the number of items, whereas others you had to extrapolate the number of items you can see by how many you think you can't see. Nothing was unclear. ",1,0,839522
100,J19F0VAV8,Sphere1_J19F0VAV8_view3.png,10105,5,6,324,3,DggI9XQNySVFOJjuxgNO9BhT3rz1,60e49c6274c1be146fa85140,63949ddf0973cb8190d339fc,6393bc7851c6f243862e40e3,Sat Dec 10 2022 09:55:34 GMT-0500 (Eastern Standard Time),"I thought this was an interesting experiment. Some of the images were relatively simple to count the number of items, whereas others you had to extrapolate the number of items you can see by how many you think you can't see. Nothing was unclear. ",1,0,839522
175,9IFGKGYWD,Sphere1_9IFGKGYWD_view1.png,7587,5,7,634,1,DggI9XQNySVFOJjuxgNO9BhT3rz1,60e49c6274c1be146fa85140,63949ddf0973cb8190d339fc,6393bc7851c6f243862e40e3,Sat Dec 10 2022 09:55:34 GMT-0500 (Eastern Standard Time),"I thought this was an interesting experiment. Some of the images were relatively simple to count the number of items, whereas others you had to extrapolate the number of items you can see by how many you think you can't see. Nothing was unclear. ",1,0,839522
50,26U5PULZX,Cylinder1_26U5PULZX_view5.png,37898,1,8,101,5,DggI9XQNySVFOJjuxgNO9BhT3rz1,60e49c6274c1be146fa85140,63949ddf0973cb8190d339fc,6393bc7851c6f243862e40e3,Sat Dec 10 2022 09:55:34 GMT-0500 (Eastern Standard Time),"I thought this was an interesting experiment. Some of the images were relatively simple to count the number of items, whereas others you had to extrapolate the number of items you can see by how many you think you can't see. Nothing was unclear. ",1,0,839522
7,2GCZP1BYJ,Disk1_2GCZP1BYJ_view1.png,8504,3,9,11,1,DggI9XQNySVFOJjuxgNO9BhT3rz1,60e49c6274c1be146fa85140,63949ddf0973cb8190d339fc,6393bc7851c6f243862e40e3,Sat Dec 10 2022 09:55:34 GMT-0500 (Eastern Standard Time),"I thought this was an interesting experiment. Some of the images were relatively simple to count the number of items, whereas others you had to extrapolate the number of items you can see by how many you think you can't see. Nothing was unclear. ",1,0,839522
9,SCRT7R5A3,Disk2_SCRT7R5A3_view5.png,8920,4,10,9,5,DggI9XQNySVFOJjuxgNO9BhT3rz1,60e49c6274c1be146fa85140,63949ddf0973cb8190d339fc,6393bc7851c6f243862e40e3,Sat Dec 10 2022 09:55:34 GMT-0500 (Eastern Standard Time),"I thought this was an interesting experiment. Some of the images were relatively simple to count the number of items, whereas others you had to extrapolate the number of items you can see by how many you think you can't see. Nothing was unclear. ",1,0,839522
60,TVACAARY6,Cylinder1_TVACAARY6_view1.png,11222,1,11,138,1,DggI9XQNySVFOJjuxgNO9BhT3rz1,60e49c6274c1be146fa85140,63949ddf0973cb8190d339fc,6393bc7851c6f243862e40e3,Sat Dec 10 2022 09:55:34 GMT-0500 (Eastern Standard Time),"I thought this was an interesting experiment. Some of the images were relatively simple to count the number of items, whereas others you had to extrapolate the number of items you can see by how many you think you can't see. Nothing was unclear. ",1,0,839522
50,KPET24YYP,Sphere2_KPET24YYP_view1.png,5996,6,12,734,1,DggI9XQNySVFOJjuxgNO9BhT3rz1,60e49c6274c1be146fa85140,63949ddf0973cb8190d339fc,6393bc7851c6f243862e40e3,Sat Dec 10 2022 09:55:34 GMT-0500 (Eastern Standard Time),"I thought this was an interesting experiment. Some of the images were relatively simple to count the number of items, whereas others you had to extrapolate the number of items you can see by how many you think you can't see. Nothing was unclear. ",1,0,839522
21,RUXPXZYBF,Disk2_RUXPXZYBF_view2.png,20706,4,13,21,2,DggI9XQNySVFOJjuxgNO9BhT3rz1,60e49c6274c1be146fa85140,63949ddf0973cb8190d339fc,6393bc7851c6f243862e40e3,Sat Dec 10 2022 09:55:34 GMT-0500 (Eastern Standard Time),"I thought this was an interesting experiment. Some of the images were relatively simple to count the number of items, whereas others you had to extrapolate the number of items you can see by how many you think you can't see. Nothing was unclear. ",1,0,839522
165,3N0VYJFQD,Sphere1_3N0VYJFQD_view5.png,33428,5,14,407,5,DggI9XQNySVFOJjuxgNO9BhT3rz1,60e49c6274c1be146fa85140,63949ddf0973cb8190d339fc,6393bc7851c6f243862e40e3,Sat Dec 10 2022 09:55:34 GMT-0500 (Eastern Standard Time),"I thought this was an interesting experiment. Some of the images were relatively simple to count the number of items, whereas others you had to extrapolate the number of items you can see by how many you think you can't see. Nothing was unclear. ",1,0,839522
53,OHDA3OCBC,Cylinder2_OHDA3OCBC_view3.png,27689,2,15,49,3,DggI9XQNySVFOJjuxgNO9BhT3rz1,60e49c6274c1be146fa85140,63949ddf0973cb8190d339fc,6393bc7851c6f243862e40e3,Sat Dec 10 2022 09:55:34 GMT-0500 (Eastern Standard Time),"I thought this was an interesting experiment. Some of the images were relatively simple to count the number of items, whereas others you had to extrapolate the number of items you can see by how many you think you can't see. Nothing was unclear. ",1,0,839522
4,SRGKT7J6W,Disk2_SRGKT7J6W_view1.png,10888,4,16,6,1,DggI9XQNySVFOJjuxgNO9BhT3rz1,60e49c6274c1be146fa85140,63949ddf0973cb8190d339fc,6393bc7851c6f243862e40e3,Sat Dec 10 2022 09:55:34 GMT-0500 (Eastern Standard Time),"I thought this was an interesting experiment. Some of the images were relatively simple to count the number of items, whereas others you had to extrapolate the number of items you can see by how many you think you can't see. Nothing was unclear. ",1,0,839522
235,VPVRI6MWB,Sphere2_VPVRI6MWB_view1.png,66002,6,17,872,1,DggI9XQNySVFOJjuxgNO9BhT3rz1,60e49c6274c1be146fa85140,63949ddf0973cb8190d339fc,6393bc7851c6f243862e40e3,Sat Dec 10 2022 09:55:34 GMT-0500 (Eastern Standard Time),"I thought this was an interesting experiment. Some of the images were relatively simple to count the number of items, whereas others you had to extrapolate the number of items you can see by how many you think you can't see. Nothing was unclear. ",1,0,839522
31,3SVUN1HJL,Disk1_3SVUN1HJL_view3.png,24558,3,18,37,3,DggI9XQNySVFOJjuxgNO9BhT3rz1,60e49c6274c1be146fa85140,63949ddf0973cb8190d339fc,6393bc7851c6f243862e40e3,Sat Dec 10 2022 09:55:34 GMT-0500 (Eastern Standard Time),"I thought this was an interesting experiment. Some of the images were relatively simple to count the number of items, whereas others you had to extrapolate the number of items you can see by how many you think you can't see. Nothing was unclear. ",1,0,839522
18,VPKDNRNXX,Disk2_VPKDNRNXX_view5.png,21678,4,19,18,5,DggI9XQNySVFOJjuxgNO9BhT3rz1,60e49c6274c1be146fa85140,63949ddf0973cb8190d339fc,6393bc7851c6f243862e40e3,Sat Dec 10 2022 09:55:34 GMT-0500 (Eastern Standard Time),"I thought this was an interesting experiment. Some of the images were relatively simple to count the number of items, whereas others you had to extrapolate the number of items you can see by how many you think you can't see. Nothing was unclear. ",1,0,839522